# Columns:
#   distance along LOS (in CHIMPs)
#   peculiar velocity  (in km/s)
#   temperature (K)
#   HI number density
# pos=(102.602,117.508,223.466), angles=(2.98982,3.77125)
  0.00715    126.9 9.977e+03 3.093e-10
  0.01443    127.6 9.959e+03 3.090e-10
  0.02444    128.5 1.004e+04 3.529e-10
  0.04420    129.2 1.024e+04 4.189e-10
  0.06395    129.9 1.047e+04 4.963e-10
  0.08371    130.4 1.070e+04 5.901e-10
  0.10347    131.0 1.093e+04 6.942e-10
  0.12226    131.7 1.115e+04 8.032e-10
  0.13214    131.2 1.135e+04 8.981e-10
  0.14299    132.0 1.155e+04 9.892e-10
  0.16275    132.9 1.170e+04 1.045e-09
  0.18250    133.7 1.173e+04 1.061e-09
  0.20226    134.6 1.175e+04 1.056e-09
  0.22202    135.6 1.177e+04 1.032e-09
  0.23278    136.6 1.180e+04 1.012e-09
  0.24266    137.2 1.187e+04 1.115e-09
  0.26154    138.3 1.195e+04 1.096e-09
  0.28121    139.2 1.211e+04 1.122e-09
  0.30097    137.5 1.234e+04 1.076e-09
  0.32081    136.6 1.337e+04 1.538e-09
  0.34057    135.8 1.474e+04 2.734e-09
  0.36033    135.1 1.571e+04 4.205e-09
  0.37052    134.9 1.633e+04 5.346e-09
  0.37541    133.8 1.648e+04 5.648e-09
  0.38493    133.3 1.711e+04 7.719e-09
  0.39481    133.3 1.782e+04 1.059e-08
  0.40469    133.3 1.860e+04 1.398e-08
  0.41457    133.1 1.942e+04 1.705e-08
  0.42445    132.6 2.017e+04 1.894e-08
  0.43433    131.3 2.085e+04 1.908e-08
  0.44421    130.1 2.087e+04 1.881e-08
  0.44999    128.4 2.089e+04 1.756e-08
  0.45194    125.1 2.087e+04 1.750e-08
  0.45603    125.9 2.139e+04 2.020e-08
  0.46396    124.8 2.122e+04 1.881e-08
  0.47883    121.4 2.086e+04 1.487e-08
  0.49864    116.7 1.927e+04 9.425e-09
  0.51840    113.0 1.708e+04 5.854e-09
  0.53816    111.2 1.522e+04 3.786e-09
  0.55791    110.4 1.408e+04 2.482e-09
  0.57767    109.9 1.331e+04 1.696e-09
  0.60741    107.3 1.244e+04 7.418e-10
  0.64702    105.8 1.175e+04 5.639e-10
  0.66959    104.8 1.144e+04 5.427e-10
  0.67937    103.8 1.091e+04 4.882e-10
  0.69622    103.0 1.058e+04 5.010e-10
  0.71598    102.9 1.046e+04 5.373e-10
  0.73574    102.8 1.052e+04 6.086e-10
  0.75550    102.5 1.079e+04 7.294e-10
  0.76794    102.2 1.123e+04 9.200e-10
  0.77782    100.2 1.126e+04 9.365e-10
  0.79501     99.5 1.185e+04 1.200e-09
  0.81477     97.8 1.289e+04 1.657e-09
  0.83453     94.8 1.433e+04 2.426e-09
  0.85429     91.0 1.563e+04 3.539e-09
  0.87405     87.6 1.621e+04 4.689e-09
  0.88785     79.5 1.863e+04 7.154e-09
  0.89773     76.0 1.852e+04 8.255e-09
  0.90858     67.0 2.285e+04 1.291e-08
  0.91841     59.0 2.545e+04 1.900e-08
  0.92679     51.0 2.637e+04 3.080e-08
  0.93173     50.7 2.622e+04 3.139e-08
  0.93817     45.2 2.544e+04 3.339e-08
  0.94804     41.0 2.406e+04 3.013e-08
  0.95792     37.2 2.332e+04 2.268e-08
  0.97279     32.0 2.247e+04 1.012e-08
  0.99260     21.3 1.947e+04 2.855e-09
  1.01236     12.9 1.342e+04 1.374e-09
  1.04209     11.1 1.273e+04 1.014e-09
  1.07615      9.5 1.143e+04 5.957e-10
  1.09591     10.6 1.084e+04 4.292e-10
  1.12122     10.9 1.068e+04 4.098e-10
  1.16074     11.2 1.092e+04 4.508e-10
  1.20026     11.4 1.125e+04 5.942e-10
  1.23977     12.5 1.152e+04 7.556e-10
  1.27929     13.3 1.143e+04 7.381e-10
  1.31488     14.7 1.104e+04 5.224e-10
  1.33464     15.2 1.091e+04 4.902e-10
  1.35832     16.0 1.061e+04 3.652e-10
  1.39404     16.9 1.035e+04 3.012e-10
  1.41380     17.8 1.013e+04 2.198e-10
  1.43736     19.0 9.926e+03 1.893e-10
  1.47687     20.5 9.793e+03 1.735e-10
  1.51639     22.0 9.757e+03 1.698e-10
  1.55591     23.0 9.975e+03 1.871e-10
  1.59543     23.6 1.031e+04 2.682e-10
  1.63494     24.8 1.055e+04 4.067e-10
  1.67446     25.9 1.072e+04 4.933e-10
  1.71194     27.4 1.077e+04 5.779e-10
  1.73170     28.0 1.061e+04 5.044e-10
  1.75159     29.7 1.061e+04 4.926e-10
  1.77135     29.1 1.130e+04 7.647e-10
  1.79301     30.7 1.098e+04 6.157e-10
  1.83253     31.6 1.073e+04 4.306e-10
  1.87204     32.5 1.034e+04 2.945e-10
  1.91156     33.4 1.022e+04 2.175e-10
  1.95108     34.5 1.013e+04 1.703e-10
  1.99059     35.5 1.003e+04 1.562e-10
  2.02984     36.5 9.953e+03 1.559e-10
  2.04960     36.4 1.023e+04 2.375e-10
  2.06963     37.4 1.010e+04 2.439e-10
  2.10914     38.8 9.981e+03 2.316e-10
  2.14866     39.8 1.003e+04 2.203e-10
  2.18818     40.0 1.020e+04 2.408e-10
  2.22769     39.1 1.082e+04 4.545e-10
  2.26721     39.9 1.105e+04 6.035e-10
  2.30673     40.3 1.113e+04 6.381e-10
  2.34624     39.9 1.122e+04 6.591e-10
  2.36749     38.6 1.146e+04 7.572e-10
  2.38725     38.7 1.115e+04 6.112e-10
  2.42528     37.8 1.121e+04 7.626e-10
  2.46479     37.5 1.112e+04 7.699e-10
  2.50431     37.6 1.084e+04 6.664e-10
  2.54383     37.2 1.054e+04 5.005e-10
  2.58334     36.3 1.026e+04 4.244e-10
  2.62286     35.6 1.023e+04 4.571e-10
  2.64477     35.6 1.025e+04 5.221e-10
  2.66453     35.6 1.030e+04 5.247e-10
  2.68539     36.2 1.020e+04 5.090e-10
  2.70515     36.5 1.016e+04 4.991e-10
  2.74141     37.5 9.883e+03 4.181e-10
  2.78093     38.2 9.545e+03 2.872e-10
  2.82045     37.9 9.267e+03 1.916e-10
  2.85996     37.6 8.956e+03 1.564e-10
  2.89948     37.8 8.860e+03 1.553e-10
  2.93900     37.8 8.933e+03 1.752e-10
  2.97851     38.0 9.133e+03 2.189e-10
  3.00329     38.1 9.304e+03 2.483e-10
  3.02304     38.4 9.188e+03 2.170e-10
  3.05755     38.6 9.106e+03 1.980e-10
  3.08149     38.8 8.922e+03 1.513e-10
  3.10125     39.2 9.096e+03 1.746e-10
  3.13658     38.7 8.904e+03 1.188e-10
  3.17610     38.0 8.709e+03 1.018e-10
  3.21561     37.5 8.745e+03 1.086e-10
  3.25513     37.2 8.963e+03 1.443e-10
  3.29465     36.8 9.370e+03 2.217e-10
  3.32118     35.8 1.026e+04 4.457e-10
  3.34094     36.9 1.029e+04 4.415e-10
  3.37368     35.9 1.108e+04 7.742e-10
  3.40322     34.6 1.120e+04 8.928e-10
  3.42288     34.0 1.143e+04 1.069e-09
  3.44264     33.4 1.181e+04 1.317e-09
  3.46240     32.7 1.214e+04 1.486e-09
  3.47993     31.4 1.257e+04 1.629e-09
  3.48981     32.0 1.293e+04 1.874e-09
  3.50191     30.3 1.312e+04 1.924e-09
  3.51800     28.5 1.297e+04 1.899e-09
  3.52788     28.7 1.295e+04 1.898e-09
  3.54143     27.5 1.256e+04 1.748e-09
  3.56119     26.9 1.209e+04 1.512e-09
  3.58095     26.5 1.174e+04 1.241e-09
  3.60071     25.7 1.156e+04 9.880e-10
  3.62047     24.6 1.133e+04 8.254e-10
  3.63888     23.3 1.116e+04 7.499e-10
  3.64876     23.1 1.117e+04 7.506e-10
  3.65998     22.0 1.109e+04 7.564e-10
  3.67974     21.1 1.106e+04 8.242e-10
  3.69950     20.7 1.107e+04 8.934e-10
  3.71926     20.5 1.116e+04 9.685e-10
  3.73636     20.4 1.136e+04 9.210e-10
  3.74624     20.6 1.201e+04 1.440e-09
  3.75877     20.6 1.210e+04 1.297e-09
  3.77853     19.5 1.212e+04 1.050e-09
  3.79783     17.8 1.141e+04 8.265e-10
  3.80771     17.5 1.116e+04 7.730e-10
  3.81805     16.2 1.067e+04 6.712e-10
  3.83781     15.7 1.056e+04 6.295e-10
  3.85757     15.3 1.052e+04 6.162e-10
  3.87732     13.9 1.098e+04 6.713e-10
  3.89708     11.2 1.185e+04 8.516e-10
  3.91684      8.9 1.231e+04 1.172e-09
  3.93660      7.5 1.225e+04 1.542e-09
  3.95472      6.3 1.265e+04 1.949e-09
  3.96460      6.3 1.367e+04 2.896e-09
  3.96666      4.0 1.489e+04 3.327e-09
  3.97654      5.3 1.395e+04 2.679e-09
  3.99587      2.0 1.510e+04 3.012e-09
  4.01563     -2.8 1.495e+04 3.074e-09
  4.03539     -6.5 1.434e+04 3.068e-09
  4.05515     -8.5 1.443e+04 3.150e-09
  4.07491    -12.0 1.471e+04 2.573e-09
  4.09467    -17.8 1.448e+04 1.973e-09
  4.11442    -23.9 1.352e+04 1.718e-09
  4.12561    -27.9 1.304e+04 1.689e-09
  4.13549    -25.9 1.312e+04 1.736e-09
  4.15394    -28.7 1.281e+04 1.714e-09
  4.17307    -30.8 1.271e+04 1.601e-09
  4.18295    -31.7 1.313e+04 1.800e-09
  4.19346    -35.0 1.296e+04 1.338e-09
  4.21322    -39.3 1.261e+04 1.044e-09
  4.23298    -43.1 1.242e+04 9.754e-10
  4.25273    -45.9 1.234e+04 9.779e-10
  4.27249    -47.9 1.227e+04 1.041e-09
  4.28455    -49.4 1.229e+04 1.067e-09
  4.29443    -48.5 1.219e+04 9.532e-10
  4.31201    -50.4 1.228e+04 9.382e-10
  4.33177    -53.0 1.242e+04 9.256e-10
  4.35153    -56.4 1.272e+04 9.607e-10
  4.37128    -59.6 1.293e+04 1.197e-09
  4.39104    -61.9 1.306e+04 1.533e-09
  4.40131    -63.4 1.309e+04 1.716e-09
  4.41119    -64.6 1.301e+04 1.699e-09
  4.43056    -65.8 1.289e+04 1.701e-09
  4.44350    -66.7 1.237e+04 1.408e-09
  4.45338    -66.1 1.267e+04 1.577e-09
  4.47008    -67.2 1.201e+04 1.037e-09
  4.48983    -69.1 1.139e+04 6.477e-10
  4.50959    -71.6 1.091e+04 4.434e-10
  4.52935    -74.1 1.058e+04 3.649e-10
  4.54911    -75.7 1.044e+04 3.438e-10
  4.56887    -76.5 1.040e+04 3.393e-10
  4.58863    -77.4 1.039e+04 3.427e-10
  4.60245    -80.3 1.072e+04 4.041e-10
  4.61233    -79.2 1.133e+04 4.655e-10
  4.61966    -85.2 1.300e+04 8.338e-10
  4.62954    -85.2 1.278e+04 8.356e-10
  4.64790    -93.4 1.862e+04 3.438e-09
  4.66267    -97.5 2.043e+04 1.053e-08
  4.67250    -99.1 2.101e+04 1.794e-08
  4.68183   -100.6 2.153e+04 3.093e-08
  4.68677   -101.7 2.167e+04 5.522e-08
  4.69226   -103.0 2.170e+04 9.031e-08
  4.70214   -104.7 2.149e+04 1.092e-07
  4.71202   -106.3 2.133e+04 1.114e-07
  4.72190   -106.9 2.068e+04 9.103e-08
  4.72874   -107.0 2.017e+04 5.643e-08
  4.73368   -106.3 2.029e+04 3.922e-08
  4.74166   -107.2 2.001e+04 2.305e-08
  4.75154   -109.2 1.958e+04 1.303e-08
  4.76130   -112.1 1.864e+04 7.580e-09
  4.76624   -113.2 1.894e+04 8.309e-09
  4.77129   -116.6 1.744e+04 5.437e-09
  4.78117   -119.2 1.656e+04 4.333e-09
  4.79105   -120.9 1.640e+04 4.058e-09
  4.80093   -122.2 1.646e+04 4.026e-09
  4.81081   -123.5 1.684e+04 4.137e-09
  4.82069   -125.9 1.711e+04 4.289e-09
  4.83057   -127.4 1.737e+04 4.634e-09
  4.83792   -129.6 1.738e+04 5.114e-09
  4.84785   -130.6 1.712e+04 4.816e-09
  4.86524   -133.2 1.697e+04 5.867e-09
  4.88500   -135.0 1.679e+04 6.322e-09
  4.90476   -136.4 1.635e+04 6.275e-09
  4.92035   -137.4 1.572e+04 5.273e-09
  4.93023   -137.9 1.554e+04 4.945e-09
  4.94428   -138.9 1.461e+04 3.293e-09
  4.96404   -140.2 1.329e+04 1.871e-09
  4.98379   -141.3 1.202e+04 1.101e-09
  5.00355   -142.0 1.123e+04 7.445e-10
  5.02331   -142.2 1.085e+04 5.644e-10
  5.04307   -142.2 1.065e+04 4.662e-10
  5.05638   -142.1 1.047e+04 4.061e-10
  5.06625   -141.4 1.020e+04 3.476e-10
  5.07930   -141.4 1.008e+04 3.130e-10
  5.08917   -141.4 1.025e+04 3.519e-10
  5.10234   -141.4 1.014e+04 3.283e-10
  5.12210   -141.3 1.009e+04 3.223e-10
  5.14186   -141.3 1.007e+04 3.229e-10
  5.16162   -141.3 1.005e+04 3.278e-10
  5.19136   -141.5 9.980e+03 3.282e-10
  5.22856   -141.1 9.708e+03 2.874e-10
  5.24832   -141.1 9.692e+03 2.751e-10
  5.26505   -140.7 9.312e+03 2.124e-10
  5.28481   -140.0 9.293e+03 2.102e-10
  5.31000   -139.7 9.018e+03 1.716e-10
  5.34952   -139.5 8.863e+03 1.510e-10
  5.38904   -139.3 8.818e+03 1.449e-10
  5.42855   -139.3 8.808e+03 1.437e-10
  5.46807   -139.3 8.816e+03 1.453e-10
  5.50759   -139.7 8.877e+03 1.519e-10
  5.54646   -142.1 9.207e+03 1.799e-10
  5.56621   -140.3 9.041e+03 1.760e-10
  5.58662   -144.1 9.800e+03 2.745e-10
  5.61616   -149.1 1.230e+04 8.039e-10
  5.63582   -151.3 1.378e+04 1.595e-09
  5.65558   -153.2 1.522e+04 3.122e-09
  5.67534   -155.5 1.643e+04 4.937e-09
  5.69510   -158.9 1.695e+04 5.902e-09
  5.71144   -162.9 1.698e+04 6.018e-09
  5.72132   -163.1 1.719e+04 6.053e-09
  5.72497   -167.7 1.665e+04 5.017e-09
  5.73485   -165.8 1.718e+04 5.899e-09
  5.75437   -170.8 1.603e+04 3.859e-09
  5.77413   -175.9 1.414e+04 2.152e-09
  5.79389   -179.9 1.224e+04 1.288e-09
  5.81365   -182.2 1.111e+04 8.941e-10
  5.83341   -183.3 1.055e+04 6.715e-10
  5.85316   -183.9 1.006e+04 5.028e-10
  5.87292   -184.6 9.648e+03 3.876e-10
  5.88401   -185.4 9.387e+03 3.223e-10
  5.89389   -185.1 9.404e+03 3.326e-10
  5.91244   -185.5 9.348e+03 3.171e-10
  5.94217   -186.3 9.333e+03 3.069e-10
  5.98179   -187.1 9.309e+03 3.016e-10
  6.02131   -187.4 9.395e+03 3.194e-10
  6.06082   -187.4 9.476e+03 3.494e-10
  6.10034   -187.1 9.477e+03 3.727e-10
  6.13847   -186.8 9.460e+03 3.818e-10
  6.15823   -188.1 9.346e+03 3.655e-10
  6.17937   -187.6 9.115e+03 3.170e-10
  6.20201   -186.9 8.851e+03 2.616e-10
  6.22177   -187.0 8.784e+03 2.410e-10
  6.25841   -186.0 8.482e+03 1.928e-10
  6.29792   -184.9 8.319e+03 1.706e-10
  6.33744   -183.7 8.284e+03 1.664e-10
  6.37696   -182.8 8.289e+03 1.668e-10
  6.41647   -182.5 8.467e+03 1.868e-10
  6.45599   -182.5 9.022e+03 2.702e-10
  6.49551   -182.7 9.600e+03 4.125e-10
  6.51990   -183.3 1.010e+04 5.914e-10
  6.53966   -183.6 1.072e+04 7.703e-10
  6.57454   -184.4 1.106e+04 9.574e-10
  6.59494   -184.9 1.114e+04 1.006e-09
  6.61470   -183.4 1.081e+04 8.150e-10
  6.64360   -183.4 1.077e+04 8.245e-10
  6.66326   -183.6 1.076e+04 8.262e-10
  6.67866   -183.8 1.065e+04 8.129e-10
  6.68854   -184.7 1.089e+04 9.307e-10
  6.70277   -184.9 1.084e+04 9.175e-10
  6.72253   -184.9 1.080e+04 9.079e-10
  6.74229   -184.7 1.079e+04 9.058e-10
  6.76205   -184.3 1.076e+04 9.075e-10
  6.78181   -183.8 1.066e+04 9.010e-10
  6.80157   -183.1 1.055e+04 8.705e-10
  6.81310   -182.4 1.042e+04 8.220e-10
  6.82298   -181.6 1.047e+04 8.461e-10
  6.83760   -180.8 1.029e+04 7.593e-10
  6.84748   -181.3 1.029e+04 7.548e-10
  6.86084   -180.5 1.009e+04 6.662e-10
  6.88060   -179.8 9.894e+03 5.853e-10
  6.90036   -178.9 9.682e+03 5.102e-10
  6.92012   -177.8 9.495e+03 4.466e-10
  6.93988   -176.8 9.405e+03 4.096e-10
  6.96961   -176.2 9.417e+03 3.950e-10
  7.00922   -174.7 9.411e+03 3.903e-10
  7.03166   -173.0 9.415e+03 3.894e-10
  7.05141   -171.9 9.424e+03 3.970e-10
  7.08826   -170.2 9.448e+03 4.023e-10
  7.12778   -168.5 9.457e+03 4.021e-10
  7.15570   -166.7 9.446e+03 3.944e-10
  7.17545   -166.6 9.600e+03 4.415e-10
  7.20681   -164.8 9.535e+03 4.172e-10
  7.24633   -162.9 9.455e+03 3.881e-10
  7.28584   -160.8 9.394e+03 3.633e-10
  7.32536   -158.8 9.364e+03 3.479e-10
  7.36488   -156.9 9.359e+03 3.401e-10
  7.40439   -155.1 9.362e+03 3.382e-10
  7.44391   -153.3 9.373e+03 3.381e-10
  7.46837   -151.5 9.435e+03 3.468e-10
  7.47829   -151.0 9.677e+03 4.031e-10
  7.49335   -151.3 9.628e+03 3.696e-10
  7.52294   -149.7 9.729e+03 3.870e-10
  7.56246   -148.2 9.816e+03 4.055e-10
  7.60198   -146.7 9.888e+03 4.177e-10
  7.63152   -145.6 9.834e+03 4.112e-10
  7.64222   -145.1 9.858e+03 4.147e-10
  7.65210   -145.1 9.789e+03 3.799e-10
  7.67094   -144.2 9.808e+03 3.799e-10
  7.68653   -143.8 9.822e+03 3.754e-10
  7.69641   -143.5 9.964e+03 4.004e-10
  7.71045   -142.9 9.968e+03 3.916e-10
  7.73021   -142.3 9.963e+03 3.843e-10
  7.74997   -141.8 9.967e+03 3.824e-10
  7.76973   -141.3 9.981e+03 3.823e-10
  7.78949   -140.9 1.005e+04 3.884e-10
  7.80117   -140.6 1.013e+04 3.993e-10
  7.81115   -141.0 9.895e+03 3.317e-10
  7.83908   -140.3 1.005e+04 3.698e-10
  7.86862   -140.0 1.014e+04 4.200e-10
  7.88828   -140.4 1.023e+04 5.350e-10
  7.90488   -142.0 1.153e+04 8.091e-10
  7.91476   -143.3 1.218e+04 9.925e-10
  7.92779   -145.8 1.433e+04 1.973e-09
  7.94755   -147.8 1.594e+04 3.815e-09
  7.96012   -149.3 1.695e+04 6.275e-09
  7.97000   -149.7 1.779e+04 8.786e-09
  7.98707   -151.0 1.818e+04 1.099e-08
  8.00683   -152.5 1.820e+04 1.141e-08
  8.02659   -153.3 1.758e+04 1.026e-08
  8.04635   -153.7 1.651e+04 6.929e-09
  8.06610   -154.2 1.527e+04 4.277e-09
  8.08586   -155.1 1.415e+04 2.573e-09
  8.10562   -156.2 1.326e+04 1.686e-09
  8.11907   -157.2 1.275e+04 1.289e-09
  8.12681   -158.6 1.285e+04 1.332e-09
  8.13312   -160.9 1.327e+04 1.519e-09
  8.14514   -161.6 1.336e+04 1.677e-09
  8.16490   -162.0 1.387e+04 2.102e-09
  8.18465   -161.9 1.432e+04 2.744e-09
  8.20441   -161.5 1.468e+04 3.480e-09
  8.22417   -161.0 1.492e+04 4.118e-09
  8.24393   -160.3 1.500e+04 4.450e-09
  8.26369   -159.7 1.499e+04 4.502e-09
  8.27802   -158.9 1.465e+04 3.912e-09
  8.28790   -159.2 1.466e+04 3.835e-09
  8.30320   -158.5 1.432e+04 3.249e-09
  8.32296   -158.0 1.395e+04 2.527e-09
  8.34160   -157.7 1.355e+04 1.900e-09
  8.35148   -159.6 1.289e+04 1.173e-09
  8.36248   -159.8 1.233e+04 8.144e-10
  8.38224   -160.0 1.178e+04 5.805e-10
  8.40200   -160.3 1.126e+04 4.330e-10
  8.42175   -160.6 1.082e+04 3.452e-10
  8.43696   -160.8 1.055e+04 3.013e-10
  8.44684   -161.4 1.046e+04 2.936e-10
  8.46127   -161.4 1.038e+04 2.872e-10
  8.48103   -161.2 1.036e+04 2.857e-10
  8.50079   -160.9 1.037e+04 2.861e-10
  8.52055   -160.8 1.042e+04 2.969e-10
  8.54031   -160.6 1.049e+04 3.200e-10
  8.55995   -160.7 1.059e+04 3.530e-10
  8.56983   -161.1 1.062e+04 3.557e-10
  8.57982   -161.4 1.075e+04 4.118e-10
  8.59591   -161.6 1.092e+04 4.763e-10
  8.60579   -162.7 1.115e+04 5.498e-10
  8.61934   -162.9 1.134e+04 6.397e-10
  8.63910   -163.1 1.149e+04 7.228e-10
  8.65886   -163.1 1.154e+04 7.806e-10
  8.67861   -163.1 1.152e+04 8.022e-10
  8.69837   -162.9 1.150e+04 8.055e-10
  8.71813   -162.6 1.131e+04 7.843e-10
  8.73789   -162.2 1.111e+04 7.067e-10
  8.75486   -161.8 1.090e+04 6.060e-10
  8.76474   -162.6 1.096e+04 6.250e-10
  8.77741   -162.1 1.073e+04 5.189e-10
  8.78819   -161.6 1.049e+04 4.344e-10
  8.79807   -161.5 1.044e+04 4.193e-10
  8.81692   -160.9 1.038e+04 3.871e-10
  8.83668   -160.6 1.039e+04 3.820e-10
  8.85644   -162.0 1.115e+04 3.886e-10
  8.87620   -166.9 1.566e+04 6.584e-10
  8.89596   -170.3 1.813e+04 2.143e-09
  8.91381   -171.3 1.888e+04 5.856e-09
  8.92369   -172.8 1.981e+04 1.218e-08
  8.93048   -172.2 1.970e+04 1.754e-08
  8.94032   -171.5 1.969e+04 2.016e-08
  8.95019   -170.7 1.962e+04 2.337e-08
  8.96007   -169.8 1.947e+04 2.525e-08
  8.96995   -169.0 1.935e+04 2.587e-08
  8.97983   -168.5 1.928e+04 2.239e-08
  8.98971   -168.7 2.024e+04 1.682e-08
  8.99813   -170.6 2.197e+04 1.384e-08
  9.00307   -174.3 2.495e+04 1.308e-08
  9.00645   -184.5 3.724e+04 9.255e-09
  9.01139   -183.7 2.493e+04 6.552e-09
  9.01935   -192.3 3.292e+04 4.920e-09
  9.02923   -200.6 4.256e+04 3.724e-09
  9.03911   -208.8 5.257e+04 2.923e-09
  9.04899   -216.2 5.026e+04 5.199e-09
  9.05887   -220.9 3.949e+04 1.594e-08
  9.06874   -223.5 3.037e+04 4.087e-08
  9.07760   -224.1 2.618e+04 6.391e-08
  9.08254   -222.0 2.676e+04 4.002e-08
  9.08850   -222.0 2.438e+04 4.372e-08
  9.09838   -221.1 2.298e+04 3.939e-08
  9.10826   -219.7 2.223e+04 3.254e-08
  9.11562   -218.4 2.173e+04 2.648e-08
  9.12056   -216.8 2.211e+04 2.115e-08
  9.12802   -216.2 2.125e+04 1.843e-08
  9.13790   -215.9 2.039e+04 1.578e-08
  9.15277   -215.7 1.962e+04 1.371e-08
  9.17257   -214.0 1.841e+04 1.046e-08
  9.19233   -212.3 1.748e+04 8.199e-09
  9.21209   -210.8 1.659e+04 6.249e-09
  9.22490   -209.8 1.600e+04 4.907e-09
  9.23464   -209.1 1.582e+04 4.205e-09
  9.24159   -209.9 1.544e+04 3.438e-09
  9.25161   -209.6 1.507e+04 3.106e-09
  9.27137   -209.3 1.491e+04 3.020e-09
  9.29112   -209.1 1.487e+04 3.009e-09
  9.31088   -208.8 1.484e+04 3.096e-09
  9.33064   -208.5 1.489e+04 3.365e-09
  9.35040   -208.2 1.489e+04 3.610e-09
  9.37016   -208.1 1.485e+04 3.683e-09
  9.38992   -208.2 1.475e+04 3.698e-09
  9.40053   -208.2 1.441e+04 3.560e-09
  9.41041   -209.0 1.396e+04 3.180e-09
  9.42943   -209.1 1.377e+04 2.926e-09
  9.44326   -209.4 1.359e+04 2.636e-09
  9.45314   -209.3 1.331e+04 2.027e-09
  9.46895   -209.9 1.307e+04 1.800e-09
  9.48871   -210.7 1.287e+04 1.645e-09
  9.50847   -211.4 1.277e+04 1.582e-09
  9.52822   -212.1 1.274e+04 1.566e-09
  9.54798   -212.8 1.277e+04 1.609e-09
  9.55948   -213.5 1.309e+04 1.858e-09
  9.56936   -213.1 1.299e+04 1.797e-09
  9.58750   -213.6 1.335e+04 2.068e-09
  9.60726   -214.1 1.369e+04 2.364e-09
  9.62702   -214.7 1.387e+04 2.523e-09
  9.64678   -215.6 1.390e+04 2.539e-09
  9.66161   -216.4 1.377e+04 2.369e-09
  9.67149   -214.9 1.372e+04 2.289e-09
  9.68629   -215.6 1.361e+04 2.162e-09
  9.70605   -216.4 1.346e+04 2.004e-09
  9.71843   -217.3 1.329e+04 1.873e-09
  9.72831   -217.2 1.312e+04 1.788e-09
  9.74557   -218.1 1.298e+04 1.718e-09
  9.76533   -218.9 1.284e+04 1.645e-09
  9.78508   -219.6 1.264e+04 1.538e-09
  9.80484   -220.3 1.237e+04 1.378e-09
  9.82460   -220.7 1.201e+04 1.179e-09
  9.84436   -221.0 1.161e+04 9.680e-10
  9.86412   -221.0 1.120e+04 7.719e-10
  9.87738   -220.9 1.080e+04 6.032e-10
  9.88335   -220.9 1.071e+04 5.683e-10
  9.88985   -220.1 1.102e+04 6.956e-10
  9.90363   -220.1 1.066e+04 5.397e-10
  9.92339   -219.8 1.035e+04 4.227e-10
  9.94315   -219.1 1.012e+04 3.508e-10
  9.97289   -218.7 1.003e+04 3.129e-10
 10.01250   -218.3 9.980e+03 2.910e-10
 10.03652   -217.8 9.895e+03 2.791e-10
 10.05628   -218.2 9.746e+03 2.500e-10
 10.08864   -217.4 9.727e+03 2.468e-10
 10.10840   -215.9 9.817e+03 2.554e-10
 10.13105   -215.2 9.806e+03 2.540e-10
 10.17057   -214.5 9.868e+03 2.687e-10
 10.21008   -213.9 1.008e+04 3.267e-10
 10.24960   -213.6 1.038e+04 4.307e-10
 10.28912   -213.3 1.062e+04 5.728e-10
 10.32864   -213.1 1.065e+04 6.818e-10
 10.35442   -212.9 1.062e+04 7.022e-10
 10.37418   -211.7 1.086e+04 7.437e-10
 10.40767   -211.6 1.083e+04 7.516e-10
 10.44719   -211.7 1.069e+04 7.057e-10
 10.48670   -211.7 1.048e+04 6.219e-10
 10.52535   -211.5 1.029e+04 5.434e-10
 10.54511   -210.2 1.122e+04 8.926e-10
 10.55576   -210.4 1.067e+04 6.563e-10
 10.57542   -210.6 1.059e+04 6.192e-10
 10.59518   -210.8 1.053e+04 5.827e-10
 10.61494   -211.2 1.055e+04 5.822e-10
 10.63469   -211.8 1.070e+04 5.963e-10
 10.65445   -212.4 1.085e+04 6.482e-10
 10.67212   -213.0 1.099e+04 7.289e-10
 10.68200   -213.1 1.099e+04 7.604e-10
 10.69397   -213.3 1.107e+04 8.381e-10
 10.71373   -213.5 1.113e+04 9.084e-10
 10.73349   -213.5 1.113e+04 9.589e-10
 10.75325   -213.3 1.113e+04 9.773e-10
 10.76327   -213.0 1.108e+04 9.818e-10
 10.77315   -214.1 1.136e+04 1.110e-09
 10.79276   -213.8 1.136e+04 1.062e-09
 10.81252   -213.6 1.136e+04 1.018e-09
 10.83107   -213.4 1.134e+04 9.807e-10
 10.84095   -213.6 1.115e+04 8.714e-10
 10.85204   -213.2 1.108e+04 8.458e-10
 10.87180   -212.8 1.098e+04 8.193e-10
 10.89155   -212.2 1.085e+04 7.854e-10
 10.91131   -211.6 1.072e+04 7.392e-10
 10.93107   -211.0 1.057e+04 6.808e-10
 10.95083   -210.4 1.042e+04 6.164e-10
 10.97059   -209.9 1.030e+04 5.563e-10
 10.98163   -209.4 1.023e+04 5.110e-10
 10.99118   -210.2 1.041e+04 5.903e-10
 10.99989   -209.9 1.020e+04 5.064e-10
 11.01010   -209.5 1.017e+04 4.911e-10
 11.02986   -209.1 1.016e+04 4.885e-10
 11.04962   -209.0 1.016e+04 4.888e-10
 11.06938   -209.0 1.014e+04 5.024e-10
 11.08914   -209.2 1.027e+04 5.643e-10
 11.10890   -209.4 1.052e+04 6.603e-10
 11.12865   -209.8 1.086e+04 7.831e-10
 11.14841   -210.3 1.122e+04 9.198e-10
 11.15884   -211.0 1.151e+04 1.039e-09
 11.16872   -210.8 1.128e+04 8.703e-10
 11.18793   -211.7 1.140e+04 9.069e-10
 11.19999   -212.7 1.142e+04 9.126e-10
 11.20986   -213.5 1.168e+04 1.021e-09
 11.22745   -214.4 1.153e+04 9.591e-10
 11.24721   -215.2 1.126e+04 7.944e-10
 11.26696   -216.0 1.094e+04 6.108e-10
 11.28672   -216.7 1.062e+04 4.526e-10
 11.30648   -217.2 1.032e+04 3.417e-10
 11.31779   -217.3 1.013e+04 2.828e-10
 11.32767   -216.8 1.008e+04 2.677e-10
 11.35597   -217.1 1.005e+04 2.496e-10
 11.39559   -217.5 9.971e+03 2.346e-10
 11.41854   -217.6 9.957e+03 2.316e-10
 11.42832   -217.7 1.038e+04 2.811e-10
 11.44479   -217.8 1.051e+04 3.054e-10
 11.46455   -217.9 1.070e+04 3.483e-10
 11.47674   -218.2 1.091e+04 4.158e-10
 11.48662   -217.8 1.071e+04 3.760e-10
 11.50406   -218.2 1.093e+04 4.687e-10
 11.52382   -218.4 1.118e+04 5.781e-10
 11.54358   -218.7 1.139e+04 7.076e-10
 11.56334   -218.8 1.154e+04 8.412e-10
 11.58310   -219.0 1.160e+04 9.527e-10
 11.60286   -219.1 1.155e+04 1.011e-09
 11.62261   -218.9 1.153e+04 1.023e-09
 11.63569   -218.5 1.131e+04 1.023e-09
 11.63989   -218.4 1.142e+04 1.086e-09
 11.64658   -219.1 1.184e+04 1.507e-09
 11.66213   -218.4 1.149e+04 1.323e-09
 11.68189   -217.8 1.120e+04 1.153e-09
 11.70165   -217.1 1.092e+04 1.010e-09
 11.72141   -216.4 1.066e+04 8.846e-10
 11.74116   -215.6 1.038e+04 7.647e-10
 11.76092   -214.5 1.010e+04 6.555e-10
 11.78068   -213.2 9.865e+03 5.562e-10
 11.79463   -211.6 9.709e+03 4.826e-10
 11.80451   -211.5 9.738e+03 4.769e-10
 11.83018   -210.4 9.649e+03 4.384e-10
 11.85525   -208.8 9.395e+03 3.909e-10
 11.87501   -210.1 9.021e+03 3.284e-10
 11.90931   -207.7 8.604e+03 2.640e-10
 11.94390   -205.3 8.246e+03 2.152e-10
 11.96366   -204.4 8.095e+03 1.910e-10
 11.98834   -201.9 7.848e+03 1.624e-10
 12.02786   -199.5 7.729e+03 1.455e-10
 12.06737   -197.2 7.701e+03 1.401e-10
 12.10689   -194.9 7.702e+03 1.390e-10
 12.14641   -192.7 7.648e+03 1.430e-10
 12.18592   -190.6 7.794e+03 1.563e-10
 12.22544   -188.6 8.002e+03 1.872e-10
 12.26180   -186.6 8.306e+03 2.379e-10
 12.28155   -185.6 8.297e+03 2.389e-10
 12.29196   -183.6 8.583e+03 2.999e-10
 12.31172   -185.5 9.066e+03 4.176e-10
 12.34399   -183.6 9.127e+03 4.349e-10
 12.38351   -181.6 9.087e+03 4.299e-10
 12.42302   -179.6 8.903e+03 3.890e-10
 12.46254   -177.6 8.692e+03 3.401e-10
 12.50206   -175.6 8.380e+03 2.730e-10
 12.54158   -173.6 8.061e+03 2.147e-10
 12.57969   -171.6 7.776e+03 1.712e-10
 12.59945   -171.1 7.682e+03 1.581e-10
 12.62061   -169.2 7.553e+03 1.411e-10
 12.66013   -167.4 7.522e+03 1.371e-10
 12.69964   -165.7 7.542e+03 1.390e-10
 12.72867   -164.3 7.695e+03 1.574e-10
 12.74843   -165.4 7.782e+03 1.629e-10
 12.77868   -163.8 7.917e+03 1.846e-10
 12.81819   -162.4 8.014e+03 2.003e-10
 12.85771   -161.1 8.073e+03 2.046e-10
 12.89723   -160.0 8.112e+03 2.037e-10
 12.91735   -159.3 8.153e+03 2.022e-10
 12.93710   -158.1 7.879e+03 1.556e-10
 12.97626   -157.7 7.899e+03 1.549e-10
 13.01578   -157.6 8.213e+03 1.694e-10
 13.05529   -157.5 8.650e+03 2.235e-10
 13.09481   -157.0 8.991e+03 2.909e-10
 13.13433   -156.4 9.179e+03 3.367e-10
 13.16539   -155.7 9.230e+03 3.494e-10
 13.18514   -155.4 8.616e+03 2.123e-10
 13.21336   -154.7 8.663e+03 1.822e-10
 13.23524   -154.0 8.705e+03 1.611e-10
 13.25500   -152.8 8.763e+03 2.059e-10
 13.29239   -152.3 8.867e+03 1.828e-10
 13.33191   -151.8 8.906e+03 1.772e-10
 13.37143   -151.2 8.924e+03 1.793e-10
 13.41094   -150.2 9.003e+03 1.935e-10
 13.45046   -149.0 9.087e+03 2.039e-10
 13.48998   -147.4 9.102e+03 2.032e-10
 13.52949   -145.6 9.096e+03 1.904e-10
 13.55314   -143.8 8.942e+03 1.739e-10
 13.57290   -143.1 8.797e+03 1.467e-10
 13.60210   -141.3 8.665e+03 1.279e-10
 13.62186   -140.2 8.795e+03 1.432e-10
 13.64805   -138.5 8.752e+03 1.359e-10
 13.68756   -137.0 8.744e+03 1.346e-10
 13.72708   -135.7 8.750e+03 1.395e-10
 13.76660   -134.7 8.870e+03 1.664e-10
 13.80611   -133.8 9.160e+03 2.299e-10
 13.84563   -133.0 9.606e+03 3.448e-10
 13.87104   -132.0 1.009e+04 5.095e-10
 13.89079   -131.0 9.834e+03 4.008e-10
 13.92466   -130.0 1.042e+04 6.209e-10
 13.96418   -129.4 1.088e+04 8.322e-10
 14.00370   -129.0 1.111e+04 9.369e-10
 14.03881   -128.7 1.114e+04 9.464e-10
 14.05857   -129.8 1.044e+04 6.142e-10
 14.08273   -129.2 1.015e+04 5.190e-10
 14.12225   -128.2 9.844e+03 4.435e-10
 14.16176   -126.9 9.662e+03 4.034e-10
 14.18893   -125.3 9.621e+03 3.861e-10
 14.20869   -124.3 1.000e+04 5.159e-10
 14.23082   -123.3 9.723e+03 4.275e-10
 14.25048   -122.5 9.663e+03 4.169e-10
 14.28022   -121.3 9.644e+03 4.152e-10
 14.31983   -119.7 9.584e+03 3.992e-10
 14.35935   -118.0 9.455e+03 3.678e-10
 14.39886   -116.1 9.291e+03 3.220e-10
 14.43838   -114.0 9.140e+03 2.710e-10
 14.47552   -111.8 9.009e+03 2.229e-10
 14.49528   -112.1 8.826e+03 1.778e-10
 14.50683   -109.8 8.810e+03 1.610e-10
 14.52659   -109.1 8.875e+03 1.856e-10
 14.55693   -106.7 8.881e+03 1.745e-10
 14.59645   -104.2 8.892e+03 1.720e-10
 14.63596   -101.6 9.023e+03 1.816e-10
 14.67548    -99.2 9.278e+03 2.212e-10
 14.71500    -96.6 9.619e+03 2.968e-10
 14.75452    -93.9 1.002e+04 4.169e-10
 14.79403    -91.1 1.048e+04 5.799e-10
 14.82472    -88.2 1.099e+04 7.790e-10
 14.84448    -86.8 1.151e+04 9.812e-10
 14.87307    -83.8 1.215e+04 1.246e-09
 14.90261    -82.2 1.196e+04 1.079e-09
 14.92192    -81.4 1.200e+04 1.057e-09
 14.93190    -82.7 1.139e+04 6.526e-10
 14.95210    -81.9 1.164e+04 6.256e-10
 14.98164    -81.8 1.165e+04 5.804e-10
 14.99336    -81.9 1.176e+04 6.520e-10
 15.00324    -82.1 1.211e+04 7.843e-10
 15.02106    -82.9 1.226e+04 1.048e-09
 15.04082    -83.7 1.251e+04 1.412e-09
 15.06058    -84.0 1.283e+04 1.933e-09
 15.08033    -84.3 1.313e+04 2.508e-09
 15.10009    -84.5 1.347e+04 3.067e-09
 15.11985    -84.8 1.384e+04 3.519e-09
 15.13961    -85.1 1.412e+04 3.765e-09
 15.15015    -85.5 1.421e+04 3.827e-09
 15.15297    -85.7 1.391e+04 2.455e-09
 15.16218    -87.3 1.414e+04 2.387e-09
 15.17913    -87.9 1.387e+04 2.139e-09
 15.19888    -88.2 1.345e+04 1.855e-09
 15.21864    -88.5 1.295e+04 1.555e-09
 15.23840    -88.5 1.243e+04 1.280e-09
 15.25816    -88.2 1.199e+04 1.057e-09
 15.27792    -87.6 1.161e+04 8.964e-10
 15.29768    -86.8 1.132e+04 7.778e-10
 15.31125    -85.9 1.110e+04 6.829e-10
 15.32113    -86.5 1.119e+04 7.720e-10
 15.33719    -85.2 1.100e+04 6.782e-10
 15.35695    -84.0 1.085e+04 6.009e-10
 15.36851    -82.8 1.069e+04 5.324e-10
 15.37839    -83.0 1.067e+04 5.716e-10
 15.39647    -82.0 1.052e+04 5.082e-10
 15.42620    -80.5 1.039e+04 4.566e-10
 15.46052    -77.7 1.017e+04 4.178e-10
 15.48028    -78.1 1.017e+04 4.622e-10
 15.50533    -75.3 1.016e+04 4.595e-10
 15.54485    -72.7 1.020e+04 4.847e-10
 15.58437    -70.2 1.029e+04 5.403e-10
 15.62388    -67.8 1.036e+04 5.874e-10
 15.66340    -65.5 1.045e+04 6.225e-10
 15.70292    -63.5 1.058e+04 6.583e-10
 15.74244    -61.9 1.080e+04 7.190e-10
 15.77841    -60.6 1.113e+04 8.294e-10
 15.79817    -62.1 1.172e+04 1.139e-09
 15.80532    -60.5 1.168e+04 1.107e-09
 15.81510    -61.8 1.140e+04 9.609e-10
 15.83115    -61.5 1.154e+04 1.031e-09
 15.85091    -60.6 1.177e+04 1.138e-09
 15.87067    -60.1 1.190e+04 1.187e-09
 15.89043    -59.5 1.198e+04 1.212e-09
 15.91019    -58.9 1.201e+04 1.215e-09
 15.92994    -58.1 1.205e+04 1.164e-09
 15.94705    -57.4 1.211e+04 1.118e-09
 15.95692    -58.2 1.234e+04 1.189e-09
 15.96946    -57.6 1.234e+04 1.160e-09
 15.98922    -56.8 1.236e+04 1.149e-09
 16.00898    -55.9 1.268e+04 1.163e-09
 16.02358    -55.2 1.287e+04 1.303e-09
 16.03346    -56.7 1.251e+04 1.568e-09
 16.04849    -56.0 1.262e+04 1.792e-09
 16.06825    -55.2 1.295e+04 2.044e-09
 16.08801    -54.2 1.361e+04 2.313e-09
 16.10599    -53.1 1.448e+04 2.554e-09
 16.11587    -54.0 1.410e+04 2.369e-09
 16.12753    -53.4 1.484e+04 2.602e-09
 16.14729    -52.8 1.552e+04 2.824e-09
 16.16705    -52.3 1.616e+04 2.979e-09
 16.18680    -51.9 1.653e+04 3.032e-09
 16.20656    -51.7 1.644e+04 3.021e-09
 16.22632    -51.5 1.563e+04 2.924e-09
 16.24193    -51.3 1.523e+04 2.760e-09
 16.25181    -52.9 1.289e+04 1.346e-09
 16.26494    -51.9 1.313e+04 1.522e-09
 16.27482    -52.3 1.416e+04 2.135e-09
 16.28560    -51.8 1.489e+04 2.568e-09
 16.30535    -51.9 1.587e+04 3.261e-09
 16.32511    -52.5 1.684e+04 4.344e-09
 16.34487    -53.0 1.752e+04 5.864e-09
 16.36463    -53.4 1.762e+04 7.329e-09
 16.38439    -53.8 1.765e+04 7.826e-09
 16.40415    -54.2 1.764e+04 7.651e-09
 16.42389    -55.1 1.745e+04 5.226e-09
 16.44365    -63.0 1.384e+04 1.034e-09
 16.46029    -67.8 1.130e+04 5.280e-10
 16.47017    -68.9 1.077e+04 4.654e-10
 16.48318    -69.2 1.058e+04 4.210e-10
 16.50294    -69.1 1.057e+04 3.760e-10
 16.52270    -68.9 1.045e+04 3.179e-10
 16.54245    -68.6 1.030e+04 2.761e-10
 16.57219    -68.2 1.006e+04 2.252e-10
 16.61180    -66.4 9.672e+03 1.696e-10
 16.65132    -64.6 9.495e+03 1.384e-10
 16.67884    -62.9 9.454e+03 1.267e-10
 16.69860    -62.6 9.442e+03 1.250e-10
 16.73035    -61.0 9.410e+03 1.205e-10
 16.75186    -59.5 9.405e+03 1.195e-10
 16.77162    -59.4 9.472e+03 1.287e-10
 16.80939    -58.1 9.544e+03 1.302e-10
 16.84891    -57.0 9.667e+03 1.443e-10
 16.88842    -55.8 9.772e+03 1.750e-10
 16.92794    -54.5 9.927e+03 2.204e-10
 16.96746    -53.2 1.007e+04 2.687e-10
 17.00697    -51.7 1.022e+04 3.134e-10
 17.03651    -50.5 1.031e+04 3.384e-10
 17.05617    -50.0 1.037e+04 3.482e-10
 17.06956    -49.0 1.050e+04 3.670e-10
 17.07944    -49.9 1.074e+04 4.173e-10
 17.09569    -49.3 1.082e+04 4.419e-10
 17.11536    -48.6 1.085e+04 4.773e-10
 17.13512    -47.1 1.068e+04 4.410e-10
 17.16494    -45.9 1.068e+04 4.548e-10
 17.20456    -43.7 1.068e+04 4.819e-10
 17.24407    -41.6 1.076e+04 5.236e-10
 17.28359    -39.4 1.084e+04 5.573e-10
 17.32311    -37.3 1.087e+04 5.677e-10
 17.36262    -35.2 1.085e+04 5.539e-10
 17.38765    -33.2 1.079e+04 4.994e-10
 17.40741    -33.3 1.121e+04 7.202e-10
 17.44166    -31.2 1.114e+04 6.755e-10
 17.48117    -29.1 1.098e+04 5.843e-10
 17.52069    -27.3 1.075e+04 4.534e-10
 17.55227    -25.9 1.062e+04 3.731e-10
 17.57203    -26.9 1.191e+04 7.464e-10
 17.59972    -25.7 1.200e+04 7.744e-10
 17.63924    -24.0 1.185e+04 7.908e-10
 17.67876    -22.2 1.181e+04 8.378e-10
 17.70555    -20.2 1.190e+04 9.030e-10
 17.71533    -21.3 1.271e+04 1.146e-09
 17.72796    -21.3 1.304e+04 1.305e-09
 17.74772    -20.2 1.341e+04 1.588e-09
 17.76748    -19.4 1.351e+04 1.816e-09
 17.78031    -18.4 1.344e+04 1.962e-09
 17.79019    -18.8 1.349e+04 1.961e-09
 17.80699    -17.8 1.330e+04 1.948e-09
 17.82675    -16.7 1.305e+04 1.865e-09
 17.84651    -15.5 1.279e+04 1.761e-09
 17.86430    -14.4 1.255e+04 1.656e-09
 17.87418    -14.9 1.264e+04 1.864e-09
 17.88603    -13.8 1.227e+04 1.578e-09
 17.91576    -12.0 1.198e+04 1.337e-09
 17.95538     -8.8 1.104e+04 9.100e-10
 17.98898     -5.8 1.042e+04 5.966e-10
 18.00874     -6.6 1.065e+04 7.250e-10
 18.02345     -3.7 1.006e+04 4.342e-10
 18.04320     -4.7 9.692e+03 3.275e-10
 18.07393     -2.3 9.276e+03 2.050e-10
 18.11344     -0.1 9.003e+03 1.655e-10
 18.15296      2.7 8.784e+03 1.740e-10
 18.19248      6.1 8.632e+03 1.827e-10
 18.23199     10.2 8.442e+03 1.609e-10
 18.27151     14.1 8.289e+03 1.190e-10
 18.31103     17.2 8.263e+03 8.409e-11
 18.34134     19.7 8.137e+03 6.468e-11
 18.36110     19.7 8.142e+03 6.641e-11
 18.39006     22.6 7.956e+03 6.012e-11
 18.42569     25.7 7.933e+03 6.092e-11
 18.44545     25.0 7.885e+03 5.844e-11
 18.46909     28.3 7.870e+03 6.310e-11
 18.50861     31.7 7.898e+03 7.137e-11
 18.54813     35.1 7.968e+03 8.241e-11
 18.58764     38.4 8.067e+03 9.582e-11
 18.62716     41.7 8.173e+03 1.149e-10
 18.65924     44.7 8.315e+03 1.423e-10
 18.67900     44.4 8.281e+03 1.324e-10
 18.70619     47.4 8.457e+03 1.668e-10
 18.74571     50.3 8.717e+03 2.144e-10
 18.78523     53.0 9.011e+03 2.711e-10
 18.82474     54.9 9.256e+03 3.206e-10
 18.85428     55.5 9.535e+03 3.706e-10
 18.87209     55.3 1.005e+04 4.733e-10
 18.88197     53.2 1.072e+04 6.341e-10
 18.89370     52.6 1.156e+04 1.020e-09
 18.91346     52.8 1.210e+04 1.553e-09
 18.93322     53.1 1.261e+04 2.157e-09
 18.95298     50.9 1.609e+04 4.058e-09
 18.97274     44.3 2.259e+04 1.066e-08
 18.98616     41.9 2.457e+04 1.606e-08
 18.99031     40.8 2.428e+04 1.634e-08
 18.99166     44.4 2.319e+04 1.184e-08
 18.99734     42.0 2.391e+04 1.612e-08
 19.00722     39.0 2.355e+04 2.627e-08
 19.01710     37.2 2.201e+04 3.654e-08
 19.02698     36.0 2.138e+04 4.197e-08
 19.03685     34.9 2.196e+04 4.028e-08
 19.04673     33.5 2.328e+04 3.422e-08
 19.05661     31.9 2.627e+04 2.102e-08
 19.06620     27.7 2.727e+04 1.001e-08
 19.07114     31.7 2.593e+04 1.664e-08
 19.07637     26.5 2.470e+04 7.505e-09
 19.08625     18.3 1.854e+04 3.752e-09
 19.09529     14.4 1.480e+04 2.921e-09
 19.10023     14.7 1.463e+04 2.775e-09
 19.11100     13.3 1.407e+04 2.550e-09
 19.13080     12.5 1.324e+04 2.307e-09
 19.14577     12.1 1.317e+04 2.382e-09
 19.15565     13.7 1.350e+04 2.184e-09
 19.17032     11.9 1.364e+04 2.434e-09
 19.19008     10.5 1.406e+04 2.890e-09
 19.20984      9.6 1.446e+04 3.651e-09
 19.22960      9.3 1.482e+04 4.624e-09
 19.24935      9.3 1.518e+04 5.530e-09
 19.26911      9.4 1.539e+04 5.737e-09
 19.28887      9.3 1.548e+04 5.305e-09
 19.30472      8.7 1.547e+04 4.557e-09
 19.31459      8.4 1.606e+04 6.082e-09
 19.31868      7.4 1.563e+04 4.991e-09
 19.32856      7.0 1.545e+04 4.786e-09
 19.34815      6.0 1.448e+04 3.299e-09
 19.36791      4.9 1.350e+04 2.267e-09
 19.38766      3.8 1.284e+04 1.666e-09
 19.40742      2.7 1.249e+04 1.307e-09
 19.42718      1.6 1.211e+04 1.101e-09
 19.44694      0.8 1.168e+04 9.462e-10
 19.46366      0.4 1.145e+04 8.823e-10
 19.47354      1.0 1.149e+04 8.904e-10
 19.48646      1.2 1.138e+04 8.742e-10
 19.50621      1.6 1.147e+04 8.857e-10
 19.52597      1.9 1.149e+04 9.036e-10
 19.53703      2.3 1.156e+04 9.071e-10
 19.54691      1.7 1.105e+04 7.176e-10
 19.56549      1.9 1.105e+04 7.264e-10
 19.58525      1.9 1.113e+04 7.315e-10
 19.60501      1.6 1.106e+04 7.246e-10
 19.62261      1.3 1.087e+04 6.962e-10
 19.63249      2.6 1.117e+04 7.779e-10
 19.64452      2.4 1.085e+04 7.707e-10
 19.66428      2.5 1.054e+04 7.102e-10
 19.68404      2.8 1.030e+04 6.052e-10
 19.70380      2.6 1.010e+04 4.732e-10
 19.72356      1.4 9.904e+03 3.568e-10
 19.74331      0.1 9.537e+03 2.934e-10
 19.75539     -1.2 9.327e+03 2.593e-10
 19.76527     -1.4 9.387e+03 2.629e-10
 19.78156     -2.9 9.754e+03 2.830e-10
 19.79144     -3.4 1.117e+04 4.648e-10
 19.80259     -5.3 1.214e+04 6.557e-10
 19.81736     -6.4 1.205e+04 7.605e-10
 19.82719     -7.1 1.270e+04 7.872e-10
 19.83707     -9.9 1.555e+04 1.287e-09
 19.84695    -15.8 2.222e+04 2.525e-09
 19.85683    -22.8 2.743e+04 8.258e-09
 19.86447    -28.8 2.897e+04 2.784e-08
 19.86858    -30.5 2.984e+04 3.107e-08
 19.87082    -40.5 2.439e+04 3.863e-07
 19.87659    -41.9 2.232e+04 6.357e-07
 19.88647    -40.8 2.143e+04 7.610e-07
 19.89634    -39.4 2.098e+04 8.884e-07
 19.90622    -38.8 2.100e+04 8.045e-07
 19.91610    -39.3 2.110e+04 6.608e-07
 19.92598    -39.8 2.099e+04 4.606e-07
 19.93586    -39.2 2.096e+04 2.712e-07
 19.94535    -38.0 2.093e+04 1.550e-07
 19.95029    -37.2 2.130e+04 8.387e-08
 19.95562    -36.6 2.155e+04 4.522e-08
 19.96550    -36.0 2.174e+04 2.373e-08
 19.97370    -36.2 2.220e+04 8.263e-09
 19.98363    -36.7 2.132e+04 1.117e-08
 20.00017    -36.0 2.024e+04 5.757e-09
 20.01993    -35.1 1.891e+04 3.318e-09
 20.03969    -33.7 1.713e+04 2.066e-09
 20.05945    -32.6 1.574e+04 1.321e-09
 20.07921    -31.1 1.500e+04 1.022e-09
 20.09897    -30.0 1.494e+04 8.501e-10
 20.10934    -27.6 1.487e+04 7.809e-10
 20.11921    -29.2 1.194e+04 2.335e-10
 20.13848    -28.4 1.165e+04 2.350e-10
 20.16822    -27.9 1.210e+04 5.675e-10
 20.19220    -26.8 1.018e+04 6.657e-10
 20.20198    -27.1 1.034e+04 7.039e-10
 20.21752    -26.0 1.055e+04 8.023e-10
 20.23727    -25.0 1.122e+04 9.758e-10
 20.25703    -24.7 1.180e+04 1.259e-09
 20.26828    -25.7 1.347e+04 2.133e-09
 20.27816    -24.8 1.317e+04 1.998e-09
 20.29655    -26.8 1.504e+04 3.714e-09
 20.31631    -28.1 1.703e+04 7.739e-09
 20.33607    -28.4 1.895e+04 1.569e-08
 20.34771    -28.3 2.025e+04 2.400e-08
 20.35260    -28.5 1.973e+04 1.946e-08
 20.36067    -29.4 2.035e+04 2.542e-08
 20.37055    -29.5 2.137e+04 3.462e-08
 20.38043    -31.1 2.213e+04 4.363e-08
 20.39030    -32.1 2.288e+04 5.812e-08
 20.40018    -34.1 2.277e+04 7.437e-08
 20.41006    -35.3 2.224e+04 9.282e-08
 20.41530    -36.2 2.174e+04 1.004e-07
 20.42024    -36.3 2.196e+04 1.250e-07
 20.42713    -37.0 2.141e+04 1.101e-07
 20.43207    -36.3 2.096e+04 3.315e-08
 20.43970    -36.0 2.015e+04 2.536e-08
 20.45457    -36.9 1.840e+04 1.299e-08
 20.47438    -37.4 1.624e+04 6.310e-09
 20.49413    -37.6 1.407e+04 3.119e-09
 20.51389    -38.1 1.193e+04 1.642e-09
 20.53365    -38.5 1.058e+04 1.022e-09
 20.55341    -37.6 9.835e+03 7.383e-10
 20.57317    -36.2 9.422e+03 5.897e-10
 20.58618    -34.8 9.058e+03 4.864e-10
 20.59606    -34.7 9.031e+03 4.846e-10
 20.61268    -33.4 8.831e+03 4.314e-10
 20.62891    -32.0 8.792e+03 4.140e-10
 20.64877    -32.3 8.737e+03 4.005e-10
 20.68203    -30.3 8.614e+03 3.805e-10
 20.72155    -28.2 8.641e+03 3.926e-10
 20.76107    -26.1 8.672e+03 4.030e-10
 20.80058    -24.1 8.625e+03 3.815e-10
 20.84010    -22.3 8.483e+03 3.265e-10
 20.87962    -21.1 8.317e+03 2.837e-10
 20.90427    -19.8 8.276e+03 2.733e-10
 20.92403    -19.7 8.283e+03 2.902e-10
 20.95865    -18.0 8.335e+03 2.953e-10
 20.99817    -16.3 8.430e+03 3.055e-10
 21.03768    -14.6 8.599e+03 3.242e-10
 21.06572    -13.3 8.763e+03 3.547e-10
 21.08548    -13.2 8.658e+03 3.362e-10
 21.11672    -11.8 8.847e+03 3.831e-10
 21.14626    -10.7 9.055e+03 4.886e-10
 21.16592     -9.6 9.304e+03 5.409e-10
 21.18568     -8.4 9.549e+03 6.398e-10
 21.20544     -7.3 9.772e+03 6.947e-10
 21.22197     -6.4 1.009e+04 7.702e-10
 21.23185     -6.9 1.020e+04 8.118e-10
 21.24495     -6.0 1.036e+04 8.695e-10
 21.26471     -5.2 1.049e+04 9.172e-10
 21.28388     -4.2 1.061e+04 9.721e-10
 21.29376     -4.7 1.041e+04 8.925e-10
 21.30423     -3.7 1.050e+04 9.220e-10
 21.32399     -2.6 1.051e+04 9.445e-10
 21.34374     -1.5 1.058e+04 9.360e-10
 21.36350     -0.4 1.058e+04 9.114e-10
 21.38092      0.7 1.058e+04 8.879e-10
 21.39080     -0.2 1.032e+04 6.921e-10
 21.40302     -0.0 1.044e+04 7.034e-10
 21.42278      0.1 1.048e+04 7.253e-10
 21.44254      0.2 1.049e+04 7.847e-10
 21.46229      0.5 1.042e+04 8.517e-10
 21.48205      1.3 1.040e+04 9.240e-10
 21.50181      2.1 1.048e+04 9.934e-10
 21.51212      2.8 1.064e+04 1.062e-09
 21.52200      2.4 1.047e+04 9.877e-10
 21.53987      2.9 1.060e+04 1.031e-09
 21.54975      1.6 1.092e+04 1.077e-09
 21.56109      1.8 1.106e+04 1.164e-09
 21.58085      2.0 1.117e+04 1.246e-09
 21.60060      2.1 1.152e+04 1.385e-09
 21.62036      1.7 1.216e+04 1.612e-09
 21.64012      0.9 1.278e+04 1.911e-09
 21.65988      0.2 1.296e+04 2.185e-09
 21.67964     -0.1 1.276e+04 2.359e-09
 21.69882     -0.0 1.252e+04 2.386e-09
 21.70870     -0.3 1.244e+04 2.569e-09
 21.71915     -0.1 1.255e+04 2.408e-09
 21.73048     -0.7 1.297e+04 2.198e-09
 21.74035     -0.8 1.279e+04 2.104e-09
 21.75867     -2.7 1.361e+04 2.234e-09
 21.77843     -5.7 1.464e+04 2.775e-09
 21.79819     -8.5 1.478e+04 3.567e-09
 21.81795     -9.6 1.452e+04 4.687e-09
 21.83770     -8.9 1.508e+04 5.881e-09
 21.85746     -8.5 1.603e+04 5.947e-09
 21.86764     -9.6 1.655e+04 5.076e-09
 21.87752    -11.1 1.522e+04 2.810e-09
 21.89698    -13.8 1.408e+04 2.241e-09
 21.91674    -16.1 1.306e+04 1.968e-09
 21.93650    -16.9 1.279e+04 1.944e-09
 21.94883    -17.2 1.289e+04 1.956e-09
 21.95871    -15.9 1.376e+04 2.657e-09
 21.97601    -16.2 1.410e+04 2.505e-09
 21.99577    -16.5 1.417e+04 2.228e-09
 22.01553    -16.8 1.387e+04 1.829e-09
 22.02659    -17.2 1.323e+04 1.404e-09
 22.03647    -17.5 1.139e+04 8.851e-10
 22.05505    -17.6 1.102e+04 7.421e-10
 22.07480    -17.6 1.089e+04 6.403e-10
 22.10454    -16.9 1.124e+04 5.716e-10
 22.14415    -16.0 1.038e+04 3.742e-10
 22.17586    -15.3 9.680e+03 2.526e-10
 22.19562    -14.2 9.295e+03 2.128e-10
 22.22319    -13.8 8.986e+03 1.737e-10
 22.26271    -12.8 8.919e+03 1.771e-10
 22.30222    -11.2 8.945e+03 2.255e-10
 22.34174     -9.1 9.041e+03 2.672e-10
 22.37586     -7.0 9.191e+03 2.765e-10
 22.39562     -6.5 9.389e+03 2.887e-10
 22.42077     -4.7 9.274e+03 2.622e-10
 22.46029     -3.2 9.262e+03 2.373e-10
 22.49375     -1.2 9.091e+03 2.342e-10
 22.51351     -0.6 9.106e+03 2.447e-10
 22.53932      2.0 8.978e+03 2.337e-10
 22.57884      4.8 8.944e+03 1.992e-10
 22.61836      7.0 9.000e+03 1.721e-10
 22.65787      9.2 9.066e+03 1.772e-10
 22.69739     11.1 9.298e+03 2.120e-10
 22.73691     13.1 9.619e+03 2.986e-10
 22.77642     15.4 9.926e+03 4.223e-10
 22.81165     17.7 1.023e+04 5.460e-10
 22.82804     18.1 1.028e+04 6.046e-10
 22.83233     18.6 1.024e+04 5.835e-10
 22.85546     20.9 1.052e+04 6.835e-10
 22.89497     22.8 1.076e+04 7.439e-10
 22.93449     24.4 1.076e+04 6.991e-10
 22.97401     25.9 1.063e+04 5.894e-10
 23.01352     27.5 1.038e+04 4.654e-10
 23.05304     29.4 1.010e+04 3.571e-10
 23.09256     31.4 9.836e+03 2.770e-10
 23.12955     33.5 9.657e+03 2.106e-10
 23.14930     33.6 9.512e+03 1.947e-10
 23.17159     35.5 9.444e+03 1.585e-10
 23.21111     37.4 9.429e+03 1.423e-10
 23.24928     39.4 9.444e+03 1.429e-10
 23.26904     38.9 9.480e+03 1.240e-10
 23.29014     40.8 9.516e+03 1.281e-10
 23.32966     42.6 9.611e+03 1.439e-10
 23.36918     44.4 9.742e+03 1.726e-10
 23.40869     45.9 1.001e+04 2.293e-10
 23.44744     46.9 1.032e+04 3.317e-10
 23.46720     47.5 9.997e+03 2.435e-10
 23.48773     48.3 1.019e+04 3.073e-10
 23.52724     49.1 1.070e+04 4.806e-10
 23.56676     50.2 1.108e+04 6.828e-10
 23.60628     51.4 1.118e+04 7.649e-10
 23.64579     52.7 1.110e+04 7.392e-10
 23.68531     54.1 1.089e+04 6.315e-10
 23.70576     55.6 1.061e+04 4.840e-10
 23.72551     54.5 1.084e+04 5.389e-10
 23.76434     55.6 1.053e+04 4.115e-10
 23.78510     56.9 1.032e+04 3.748e-10
 23.80486     58.0 9.772e+03 2.753e-10
 23.84338     59.5 9.767e+03 2.781e-10
 23.88289     61.0 9.850e+03 2.979e-10
 23.92241     62.4 9.954e+03 3.419e-10
 23.96193     63.8 1.001e+04 3.795e-10
 24.00144     65.3 9.972e+03 3.798e-10
 24.04096     66.8 9.881e+03 3.570e-10
 24.08048     68.3 9.798e+03 3.300e-10
 24.10299     69.7 9.772e+03 3.244e-10
 24.12275     71.2 9.988e+03 4.000e-10
 24.14247     72.6 1.008e+04 4.254e-10
 24.16223     71.9 9.843e+03 3.758e-10
 24.19903     73.5 9.823e+03 3.793e-10
 24.23854     74.9 9.786e+03 3.758e-10
 24.27806     76.3 9.711e+03 3.620e-10
 24.31758     77.6 9.571e+03 3.339e-10
 24.35709     79.0 9.383e+03 3.024e-10
 24.39661     80.6 9.180e+03 2.769e-10
 24.42089     82.2 9.012e+03 2.556e-10
 24.44065     83.4 9.092e+03 2.584e-10
 24.47565     85.1 9.042e+03 2.583e-10
 24.51516     87.0 9.032e+03 2.603e-10
 24.55468     88.9 9.052e+03 2.659e-10
 24.57918     90.9 9.184e+03 2.827e-10
 24.59894     91.3 8.805e+03 2.262e-10
 24.63371     93.3 8.959e+03 2.398e-10
 24.67323     95.4 9.207e+03 2.741e-10
 24.71275     97.4 9.507e+03 3.314e-10
 24.73879     99.4 9.737e+03 3.937e-10
 24.75854    100.4 9.730e+03 3.866e-10
 24.78180    101.5 9.851e+03 4.314e-10
 24.79734    102.8 1.001e+04 4.882e-10
 24.80722    103.0 9.884e+03 4.373e-10
 24.82122    104.2 1.007e+04 5.024e-10
 24.84098    105.3 1.031e+04 5.928e-10
 24.86074    106.4 1.052e+04 6.900e-10
 24.88050    107.5 1.072e+04 7.967e-10
 24.89754    108.6 1.089e+04 9.087e-10
 24.90742    109.2 1.077e+04 7.888e-10
 24.92001    110.3 1.100e+04 9.128e-10
 24.93977    111.3 1.120e+04 1.039e-09
 24.95953    112.3 1.137e+04 1.173e-09
 24.97929    113.3 1.152e+04 1.315e-09
 24.99905    114.4 1.176e+04 1.465e-09
 25.01570    115.6 1.200e+04 1.660e-09
 25.02558    116.0 1.159e+04 1.409e-09
 25.03856    117.2 1.168e+04 1.517e-09
 25.05649    118.4 1.186e+04 1.576e-09
 25.06637    118.4 1.236e+04 1.881e-09
 25.07808    119.3 1.269e+04 2.177e-09
 25.09784    120.1 1.311e+04 2.472e-09
 25.11760    120.8 1.358e+04 2.801e-09
 25.13736    121.2 1.405e+04 3.190e-09
 25.15711    121.5 1.447e+04 3.658e-09
 25.17687    121.8 1.481e+04 4.214e-09
 25.19663    122.1 1.504e+04 4.836e-09
 25.21544    122.7 1.519e+04 5.438e-09
 25.22531    123.0 1.552e+04 6.002e-09
 25.23405    123.6 1.541e+04 5.838e-09
 25.24393    123.9 1.530e+04 5.734e-09
 25.25591    124.6 1.524e+04 5.600e-09
 25.27566    125.3 1.511e+04 5.323e-09
 25.29542    126.0 1.496e+04 4.932e-09
 25.31518    126.5 1.478e+04 4.451e-09
 25.33494    127.0 1.457e+04 3.988e-09
 25.35470    127.5 1.441e+04 3.605e-09
 25.37438    127.7 1.428e+04 3.319e-09
 25.39414    127.4 1.358e+04 2.287e-09
 25.41397    127.7 1.337e+04 2.011e-09
 25.43373    128.3 1.310e+04 1.785e-09
 25.45241    129.0 1.279e+04 1.554e-09
 25.46229    129.8 1.312e+04 1.950e-09
 25.47325    130.8 1.279e+04 1.584e-09
 25.49301    131.6 1.245e+04 1.226e-09
 25.51277    132.3 1.211e+04 9.287e-10
 25.53252    132.6 1.174e+04 7.214e-10
 25.54321    132.6 1.132e+04 6.123e-10
 25.55309    131.6 1.060e+04 5.360e-10
 25.57204    132.1 1.053e+04 5.417e-10
 25.59180    132.8 1.057e+04 5.725e-10
 25.61156    133.7 1.084e+04 6.497e-10
 25.63132    133.9 1.126e+04 7.912e-10
 25.65107    133.8 1.203e+04 1.056e-09
 25.67077    133.5 1.315e+04 1.597e-09
 25.69052    132.9 1.396e+04 2.250e-09
 25.70216    132.0 1.550e+04 4.159e-09
 25.71204    132.4 1.477e+04 3.179e-09
 25.73011    131.7 1.632e+04 5.321e-09
 25.74987    130.4 1.786e+04 8.355e-09
 25.76962    128.4 1.914e+04 1.135e-08
 25.78938    125.6 1.980e+04 1.345e-08
 25.80914    122.7 1.982e+04 1.321e-08
 25.82890    119.8 1.940e+04 1.192e-08
 25.84866    117.4 1.841e+04 9.298e-09
 25.86111    116.1 1.713e+04 6.368e-09
 25.87099    115.9 1.687e+04 7.060e-09
 25.88817    115.9 1.596e+04 4.938e-09
 25.89900    116.1 1.506e+04 3.076e-09
 25.90888    115.4 1.555e+04 3.269e-09
 25.92769    115.7 1.453e+04 1.878e-09
 25.94745    115.9 1.355e+04 1.145e-09
 25.96721    116.3 1.277e+04 8.061e-10
 25.98697    117.2 1.228e+04 6.659e-10
 26.00673    118.7 1.201e+04 6.079e-10
 26.02006    120.4 1.185e+04 5.748e-10
 26.02993    119.4 1.138e+04 4.193e-10
 26.04624    121.3 1.124e+04 3.993e-10
 26.06600    123.3 1.114e+04 3.807e-10
 26.08576    125.1 1.106e+04 3.640e-10
 26.10552    126.9 1.107e+04 3.530e-10
 26.11736    128.8 1.111e+04 3.524e-10
 26.12724    128.9 1.142e+04 3.524e-10
 26.14503    130.9 1.199e+04 3.601e-10
 26.16479    132.9 1.338e+04 3.761e-10
 26.17900    135.4 1.546e+04 4.192e-10
 26.18888    134.4 1.140e+04 3.946e-10
 26.20431    136.3 1.231e+04 4.531e-10
 26.22407    135.6 1.725e+04 5.096e-10
 26.24383    130.8 2.878e+04 1.048e-09
 26.25843    122.3 3.583e+04 4.902e-09
 26.26332    120.8 3.402e+04 4.444e-09
 26.26843    117.4 3.397e+04 7.528e-09
 26.27831    115.2 3.004e+04 2.437e-08
 26.28818    111.2 2.691e+04 6.579e-08
 26.29806    107.8 2.607e+04 9.138e-08
 26.30794    104.1 2.603e+04 9.274e-08
 26.31782     99.3 2.594e+04 8.674e-08
 26.32770     94.0 2.552e+04 7.639e-08
 26.33562     89.8 2.533e+04 5.856e-08
 26.34055     90.2 2.710e+04 6.103e-08
 26.34279     87.1 2.936e+04 2.519e-08
 26.34773     88.7 2.750e+04 3.267e-08
 26.35734     86.4 2.785e+04 1.562e-08
 26.36722     83.2 2.579e+04 7.714e-09
 26.37710     80.0 2.183e+04 4.126e-09
 26.38698     77.6 1.813e+04 2.611e-09
 26.39686     76.7 1.585e+04 1.965e-09
 26.40674     76.5 1.503e+04 1.758e-09
 26.42160     77.3 1.468e+04 1.605e-09
 26.44141     78.0 1.425e+04 1.494e-09
 26.46117     78.2 1.390e+04 1.403e-09
 26.48093     78.1 1.389e+04 1.422e-09
 26.49690     77.8 1.394e+04 1.571e-09
 26.50678     78.2 1.350e+04 1.328e-09
 26.52044     77.7 1.356e+04 1.502e-09
 26.54020     77.6 1.375e+04 1.789e-09
 26.55407     77.8 1.373e+04 2.043e-09
 26.56395     77.7 1.327e+04 1.948e-09
 26.57972     78.1 1.333e+04 2.102e-09
 26.59948     78.0 1.358e+04 2.272e-09
 26.61924     77.1 1.442e+04 2.582e-09
 26.63899     74.8 1.599e+04 3.389e-09
 26.65585     72.3 1.743e+04 5.468e-09
 26.66573     74.5 1.686e+04 4.837e-09
 26.67851     72.7 1.788e+04 7.729e-09
 26.69827     71.9 1.840e+04 1.138e-08
 26.71803     72.0 1.895e+04 1.496e-08
 26.73779     72.2 1.900e+04 1.722e-08
 26.75754     72.4 1.878e+04 1.602e-08
 26.77242     72.6 1.828e+04 1.242e-08
 26.78230     71.6 1.709e+04 6.886e-09
 26.79706     70.2 1.615e+04 4.481e-09
 26.81480     68.5 1.511e+04 3.223e-09
 26.82468     70.0 1.537e+04 3.249e-09
 26.83658     68.3 1.432e+04 2.524e-09
 26.85634     67.1 1.370e+04 2.260e-09
 26.87609     66.4 1.337e+04 2.098e-09
 26.89585     66.0 1.313e+04 1.933e-09
 26.91561     65.7 1.287e+04 1.721e-09
 26.93537     65.5 1.262e+04 1.505e-09
 26.95513     65.2 1.238e+04 1.319e-09
 26.97374     64.8 1.218e+04 1.175e-09
 26.98362     65.8 1.239e+04 1.310e-09
 26.99078     65.5 1.222e+04 1.196e-09
 27.00066     64.7 1.219e+04 1.169e-09
 27.01440     64.4 1.204e+04 1.068e-09
 27.03416     64.1 1.194e+04 9.888e-10
 27.05392     63.8 1.187e+04 9.234e-10
 27.07368     63.5 1.182e+04 8.744e-10
 27.09344     63.1 1.180e+04 8.609e-10
 27.11320     62.8 1.180e+04 8.665e-10
 27.13269     62.6 1.180e+04 8.946e-10
 27.14257     63.5 1.190e+04 9.487e-10
 27.15271     63.6 1.184e+04 9.974e-10
 27.17247     63.8 1.178e+04 1.027e-09
 27.19223     64.2 1.173e+04 1.007e-09
 27.20914     64.7 1.162e+04 9.497e-10
 27.21902     64.5 1.144e+04 8.318e-10
 27.23175     65.1 1.130e+04 7.266e-10
 27.25150     65.5 1.116e+04 6.200e-10
 27.27126     65.8 1.104e+04 5.250e-10
 27.29102     65.9 1.092e+04 4.506e-10
 27.30152     66.0 1.084e+04 4.212e-10
 27.31140     66.5 1.094e+04 4.604e-10
 27.33054     66.6 1.095e+04 4.641e-10
 27.35030     66.6 1.101e+04 4.853e-10
 27.37005     66.7 1.111e+04 5.389e-10
 27.38981     66.9 1.125e+04 6.299e-10
 27.40957     67.2 1.143e+04 7.574e-10
 27.42749     67.5 1.167e+04 9.229e-10
 27.43737     67.4 1.161e+04 8.932e-10
 27.44909     67.7 1.192e+04 1.084e-09
 27.46047     67.6 1.223e+04 1.310e-09
 27.47035     67.5 1.233e+04 1.408e-09
 27.48860     67.2 1.268e+04 1.703e-09
 27.50836     66.2 1.370e+04 2.306e-09
 27.52812     63.5 1.568e+04 3.844e-09
 27.54788     60.3 1.739e+04 6.889e-09
 27.56764     57.6 1.838e+04 1.080e-08
 27.58740     55.1 1.898e+04 1.413e-08
 27.60716     52.3 1.960e+04 1.602e-08
 27.61942     49.0 1.984e+04 1.495e-08
 27.62930     49.1 2.048e+04 1.969e-08
 27.64585     45.0 2.109e+04 1.545e-08
 27.65568     45.6 2.070e+04 1.459e-08
 27.66638     41.9 2.159e+04 1.080e-08
 27.68619     26.5 2.332e+04 1.041e-08
 27.70595     13.7 2.136e+04 1.708e-08
 27.72571     10.1 1.959e+04 2.241e-08
 27.74546      9.8 1.924e+04 1.773e-08
 27.76522      8.2 1.928e+04 8.709e-09
 27.77836      3.3 1.705e+04 3.153e-09
 27.78824      4.3 1.652e+04 2.933e-09
 27.80474     -1.7 1.271e+04 1.154e-09
 27.82450     -3.9 1.141e+04 5.985e-10
 27.84426     -4.8 1.104e+04 4.770e-10
 27.86401     -5.8 1.077e+04 4.279e-10
 27.87408     -6.0 1.055e+04 4.531e-10
 27.88396     -4.9 1.049e+04 3.657e-10
 27.90353     -5.2 1.036e+04 4.353e-10
 27.92329     -5.0 1.046e+04 5.265e-10
 27.93731     -4.4 1.056e+04 6.585e-10
 27.94719     -4.0 1.048e+04 6.238e-10
 27.96281     -3.3 1.084e+04 7.545e-10
 27.98256     -2.6 1.108e+04 8.895e-10
 28.00232     -1.9 1.125e+04 9.417e-10
 28.03206     -1.5 1.111e+04 8.261e-10
 28.07167     -1.5 1.092e+04 6.994e-10
 28.09264     -1.3 1.092e+04 7.033e-10
 28.11239      0.2 1.096e+04 7.129e-10
 28.15071     -1.7 1.213e+04 1.045e-09
 28.18025     -5.1 1.354e+04 2.166e-09
 28.19991     -5.9 1.404e+04 3.348e-09
 28.21967     -5.0 1.437e+04 4.457e-09
 28.23942     -4.0 1.428e+04 4.541e-09
 28.25521     -2.3 1.426e+04 3.586e-09
 28.26509     -2.3 1.413e+04 3.572e-09
 28.27894     -2.3 1.369e+04 2.273e-09
 28.29870     -3.9 1.283e+04 1.529e-09
 28.31080     -5.4 1.206e+04 1.098e-09
 28.32068     -5.4 1.221e+04 1.145e-09
 28.34819     -6.9 1.135e+04 9.194e-10
 28.38781     -7.1 1.104e+04 8.221e-10
 28.42732     -6.2 1.082e+04 7.893e-10
 28.46684     -4.7 1.046e+04 6.559e-10
 28.50636     -3.0 9.942e+03 4.519e-10
 28.52935     -1.7 9.480e+03 2.972e-10
 28.54911     -1.4 9.497e+03 2.968e-10
 28.57330     -0.2 9.202e+03 2.093e-10
 28.59306      0.0 9.273e+03 2.325e-10
 28.62491      1.4 9.040e+03 1.889e-10
 28.66442      3.1 8.806e+03 1.664e-10
 28.70394      5.1 8.713e+03 1.513e-10
 28.74346      6.8 8.696e+03 1.307e-10
 28.78297      8.3 8.627e+03 1.163e-10
 28.82249      9.9 8.544e+03 1.111e-10
 28.86201     11.5 8.588e+03 1.129e-10
 28.89120     12.6 8.731e+03 1.216e-10
 28.91096     12.2 8.725e+03 1.235e-10
 28.94104     13.3 8.892e+03 1.501e-10
 28.96606     14.8 8.911e+03 1.735e-10
 28.98582     15.1 8.900e+03 1.737e-10
 29.02008     17.1 8.830e+03 1.577e-10
 29.05959     18.8 8.848e+03 1.306e-10
 29.09911     20.1 8.919e+03 1.195e-10
 29.13863     21.4 8.950e+03 1.226e-10
 29.17814     22.8 9.035e+03 1.357e-10
 29.20909     24.5 9.119e+03 1.613e-10
 29.22885     24.2 9.140e+03 1.619e-10
 29.25718     26.0 9.200e+03 1.885e-10
 29.29669     28.0 9.261e+03 2.143e-10
 29.33621     29.8 9.334e+03 2.391e-10
 29.37573     31.6 9.404e+03 2.635e-10
 29.40277     33.5 9.448e+03 2.849e-10
 29.42253     33.5 9.321e+03 2.545e-10
 29.45476     35.5 9.349e+03 2.694e-10
 29.49428     37.5 9.347e+03 2.697e-10
 29.52699     39.5 9.313e+03 2.647e-10
 29.54675     39.1 9.207e+03 2.460e-10
 29.57331     41.2 9.134e+03 2.315e-10
 29.61283     43.3 9.050e+03 2.126e-10
 29.65234     45.5 8.953e+03 1.870e-10
 29.69186     47.6 8.843e+03 1.562e-10
 29.73138     49.7 8.733e+03 1.254e-10
 29.77089     51.6 8.623e+03 1.005e-10
 29.81041     53.4 8.479e+03 8.859e-11
 29.83949     55.5 8.440e+03 8.823e-11
 29.85420     55.7 8.449e+03 8.793e-11
 29.86464     56.0 8.206e+03 8.453e-11
 29.88945     58.1 8.210e+03 8.756e-11
 29.92896     60.2 8.265e+03 9.646e-11
 29.96848     62.2 8.368e+03 1.118e-10
 30.00800     64.3 8.497e+03 1.306e-10
 30.04751     66.1 8.621e+03 1.492e-10
 30.08703     67.7 8.752e+03 1.668e-10
 30.12655     69.1 8.980e+03 1.955e-10
 30.16278     69.6 9.364e+03 2.734e-10
 30.18254     69.9 9.390e+03 2.768e-10
 30.20558     69.8 1.004e+04 4.804e-10
 30.24510     69.7 1.101e+04 9.082e-10
 30.27620     69.2 1.181e+04 1.385e-09
 30.29596     70.0 1.203e+04 1.515e-09
 30.32413     68.5 1.214e+04 1.579e-09
 30.36365     67.7 1.181e+04 1.326e-09
 30.40316     66.7 1.103e+04 7.961e-10
 30.44268     65.2 1.011e+04 4.322e-10
 30.48068     64.0 9.651e+03 3.463e-10
 30.50044     63.3 9.548e+03 3.280e-10
 30.52171     62.4 9.611e+03 3.448e-10
 30.56123     61.4 9.764e+03 3.838e-10
 30.60075     60.3 9.736e+03 3.796e-10
 30.64026     60.0 9.509e+03 3.225e-10
 30.67978     60.0 9.186e+03 2.159e-10
 30.71291     60.0 8.922e+03 1.280e-10
 30.73267     60.8 8.929e+03 1.265e-10
 30.75881     60.7 8.691e+03 8.694e-11
 30.79833     61.0 8.488e+03 8.291e-11
 30.81833     62.4 8.470e+03 8.441e-11
 30.83809     62.3 8.473e+03 8.542e-11
 30.87736     64.1 8.507e+03 9.218e-11
 30.91688     66.1 8.581e+03 9.844e-11
 30.95640     68.0 8.662e+03 1.008e-10
 30.99592     69.9 8.711e+03 1.010e-10
 31.03543     71.8 8.742e+03 1.012e-10
 31.07495     73.7 8.766e+03 1.026e-10
 31.11447     75.5 8.787e+03 1.064e-10
 31.13623     77.4 8.803e+03 1.142e-10
 31.15163     77.2 8.847e+03 1.331e-10
 31.16938     78.2 8.861e+03 1.202e-10
 31.19350     80.1 8.884e+03 1.345e-10
 31.23302     82.0 8.917e+03 1.524e-10
 31.27253     83.8 8.961e+03 1.714e-10
 31.31205     85.5 9.009e+03 1.882e-10
 31.35157     87.1 9.095e+03 2.053e-10
 31.39108     88.6 9.185e+03 2.229e-10
 31.43060     90.0 9.260e+03 2.379e-10
 31.45413     91.4 9.270e+03 2.409e-10
 31.47388     91.3 9.201e+03 2.230e-10
 31.50963     92.8 9.182e+03 2.228e-10
 31.54915     94.4 9.139e+03 2.204e-10
 31.58633     96.3 9.079e+03 2.117e-10
 31.60609     96.7 9.253e+03 2.496e-10
 31.62818     98.5 9.132e+03 2.110e-10
 31.66770    100.3 8.982e+03 1.830e-10
 31.70722    102.2 8.942e+03 1.782e-10
 31.74673    104.1 8.963e+03 1.815e-10
 31.77202    105.9 9.093e+03 2.009e-10
 31.79178    105.7 9.114e+03 2.042e-10
 31.82577    107.1 9.441e+03 2.602e-10
 31.86528    107.9 9.803e+03 3.505e-10
 31.90480    108.7 1.024e+04 5.009e-10
 31.94432    109.6 1.078e+04 7.423e-10
 31.97386    109.9 1.088e+04 8.186e-10
 31.99352    110.1 1.090e+04 8.298e-10
 32.01328    110.1 1.088e+04 8.246e-10
 32.03273    110.3 1.080e+04 7.966e-10
 32.04261    110.5 1.068e+04 7.273e-10
 32.06277    111.0 1.044e+04 6.170e-10
 32.08992    111.6 1.009e+04 4.809e-10
 32.10968    111.1 1.006e+04 4.929e-10
 32.14190    111.7 9.744e+03 3.874e-10
 32.18142    112.3 9.520e+03 3.166e-10
 32.22094    112.8 9.372e+03 2.743e-10
 32.26045    113.4 9.270e+03 2.489e-10
 32.29997    114.1 9.178e+03 2.296e-10
 32.33949    114.9 9.068e+03 2.083e-10
 32.37900    116.0 8.931e+03 1.825e-10
 32.40781    117.3 8.781e+03 1.549e-10
 32.42757    117.4 8.665e+03 1.432e-10
 32.45804    118.9 8.568e+03 1.283e-10
 32.47952    120.5 8.544e+03 1.220e-10
 32.49928    121.4 8.497e+03 1.091e-10
 32.53707    123.2 8.494e+03 1.093e-10
 32.57659    125.1 8.516e+03 1.111e-10
 32.61610    127.0 8.556e+03 1.164e-10
 32.65562    129.0 8.598e+03 1.259e-10
 32.69514    131.0 8.649e+03 1.401e-10
 32.72571    132.9 8.724e+03 1.603e-10
 32.74547    132.7 8.738e+03 1.725e-10
 32.77417    134.5 8.862e+03 1.999e-10
 32.81369    136.1 9.018e+03 2.369e-10
 32.85320    137.6 9.219e+03 2.894e-10
 32.89272    139.0 9.516e+03 3.687e-10
 32.91623    140.2 9.927e+03 4.928e-10
 32.93599    142.2 9.520e+03 3.682e-10
 32.97175    143.4 9.939e+03 4.969e-10
 33.01127    144.4 1.047e+04 7.022e-10
 33.04361    145.6 1.101e+04 9.749e-10
 33.06337    145.0 1.048e+04 7.113e-10
 33.09030    146.3 1.066e+04 7.677e-10
 33.12982    147.5 1.067e+04 7.225e-10
 33.16934    148.7 1.050e+04 5.711e-10
 33.20886    150.0 1.009e+04 3.705e-10
 33.24837    151.4 9.447e+03 2.034e-10
 33.28789    152.9 8.595e+03 1.095e-10
 33.32741    154.6 7.956e+03 8.053e-11
 33.35294    156.9 7.834e+03 7.950e-11
 33.36728    158.7 8.163e+03 9.111e-11
 33.38126    158.6 7.831e+03 7.789e-11
 33.40644    161.1 7.808e+03 8.015e-11
 33.44596    163.7 7.861e+03 8.400e-11
 33.48547    166.4 7.949e+03 8.764e-11
 33.52499    169.1 8.055e+03 9.195e-11
 33.56451    171.7 8.164e+03 9.592e-11
 33.60402    174.2 8.240e+03 9.965e-11
 33.64354    176.6 8.281e+03 1.037e-10
 33.67940    178.9 8.306e+03 1.091e-10
 33.69916    178.9 8.244e+03 1.047e-10
 33.72257    181.1 8.283e+03 1.141e-10
 33.76209    183.2 8.372e+03 1.302e-10
 33.78965    185.3 8.502e+03 1.538e-10
 33.80941    186.2 8.720e+03 1.836e-10
 33.84112    188.2 8.867e+03 2.173e-10
 33.88064    190.1 9.040e+03 2.509e-10
 33.92016    191.9 9.185e+03 2.683e-10
 33.95967    193.4 9.201e+03 2.679e-10
 33.99730    195.0 9.190e+03 2.596e-10
 34.01705    194.6 9.187e+03 2.630e-10
 34.03871    196.3 9.144e+03 2.452e-10
 34.07822    198.2 9.108e+03 2.253e-10
 34.11774    200.2 9.092e+03 2.113e-10
 34.15726    202.3 9.097e+03 2.048e-10
 34.19677    204.5 9.153e+03 2.024e-10
 34.22637    206.7 9.201e+03 2.030e-10
 34.24612    207.3 9.174e+03 2.006e-10
 34.27581    209.5 9.280e+03 2.123e-10
 34.31519    211.6 9.376e+03 2.236e-10
 34.35471    213.4 9.458e+03 2.236e-10
 34.39436    215.4 9.494e+03 2.230e-10
 34.43388    217.4 9.533e+03 2.184e-10
 34.47339    219.4 9.588e+03 2.118e-10
 34.51291    221.3 9.614e+03 2.111e-10
 34.55243    223.1 9.675e+03 2.133e-10
 34.59194    224.9 9.818e+03 2.239e-10
 34.63146    226.5 1.001e+04 2.523e-10
 34.65285    227.9 1.021e+04 3.017e-10
 34.66471    228.1 1.012e+04 2.565e-10
 34.68284    228.4 1.014e+04 2.675e-10
 34.71049    229.8 1.032e+04 3.271e-10
 34.75001    230.7 1.042e+04 3.802e-10
 34.78953    232.4 1.052e+04 4.525e-10
 34.82904    234.3 1.068e+04 5.444e-10
 34.86856    235.9 1.086e+04 6.396e-10
 34.90808    236.9 1.086e+04 6.602e-10
 34.94759    237.6 1.081e+04 6.466e-10
 34.97074    238.0 1.065e+04 5.940e-10
 34.99050    237.2 1.147e+04 9.464e-10
 35.02663    237.4 1.122e+04 8.353e-10
 35.06614    237.7 1.081e+04 6.571e-10
 35.09979    238.2 1.040e+04 4.964e-10
 35.11955    239.2 1.015e+04 4.031e-10
 35.14518    239.8 9.805e+03 3.147e-10
 35.18469    240.4 9.568e+03 2.596e-10
 35.22421    241.2 9.400e+03 2.254e-10
 35.26373    242.0 9.258e+03 2.017e-10
 35.28864    242.9 9.113e+03 1.803e-10
 35.30840    241.1 9.070e+03 1.794e-10
 35.34276    242.2 8.878e+03 1.546e-10
 35.38228    243.3 8.676e+03 1.295e-10
 35.42180    244.5 8.479e+03 1.092e-10
 35.46131    245.8 8.304e+03 9.793e-11
 35.50083    247.3 8.223e+03 9.618e-11
 35.53650    249.0 8.218e+03 9.630e-11
 35.55626    250.0 8.222e+03 9.923e-11
 35.57986    251.8 8.216e+03 1.001e-10
 35.60654    253.6 8.215e+03 1.038e-10
 35.62630    252.7 8.256e+03 1.160e-10
 35.65890    254.7 8.253e+03 1.187e-10
 35.69841    256.6 8.252e+03 1.221e-10
 35.73793    258.6 8.260e+03 1.278e-10
 35.77745    260.6 8.298e+03 1.385e-10
 35.81696    262.7 8.383e+03 1.567e-10
 35.85648    264.8 8.526e+03 1.832e-10
 35.89600    266.9 8.716e+03 2.174e-10
 35.92443    269.0 8.909e+03 2.575e-10
 35.94419    268.3 8.741e+03 2.370e-10
 35.97322    270.4 8.827e+03 2.561e-10
 35.99297    271.3 8.872e+03 2.701e-10
 36.01455    273.2 8.989e+03 2.918e-10
 36.05406    275.0 9.063e+03 2.955e-10
 36.09358    276.7 9.068e+03 2.950e-10
 36.13310    278.3 9.077e+03 2.921e-10
 36.17261    279.9 9.068e+03 2.830e-10
 36.21213    281.4 9.010e+03 2.682e-10
 36.24233    283.0 8.920e+03 2.496e-10
 36.26209    282.9 8.656e+03 2.025e-10
 36.29116    284.7 8.619e+03 1.959e-10
 36.33068    286.5 8.585e+03 1.895e-10
 36.37020    288.5 8.561e+03 1.861e-10
 36.40971    290.7 8.561e+03 1.859e-10
 36.42969    292.8 8.579e+03 1.864e-10
 36.44944    293.3 8.540e+03 1.941e-10
 36.48875    295.5 8.569e+03 1.966e-10
 36.52827    297.7 8.601e+03 1.979e-10
 36.56023    299.8 8.640e+03 1.990e-10
 36.57998    299.3 8.662e+03 2.034e-10
 36.60730    301.4 8.746e+03 2.096e-10
 36.64682    303.3 8.891e+03 2.222e-10
 36.68633    305.1 9.112e+03 2.444e-10
 36.72585    306.5 9.373e+03 2.753e-10
 36.76537    307.6 9.604e+03 3.066e-10
 36.79491    307.8 9.714e+03 3.283e-10
 36.81457    308.6 9.859e+03 3.566e-10
 36.83433    309.8 1.004e+04 4.024e-10
 36.85408    310.8 1.017e+04 4.524e-10
 36.86620    311.6 1.027e+04 4.980e-10
 36.87608    311.8 1.007e+04 4.431e-10
 36.88781    312.6 1.016e+04 4.866e-10
 36.89769    312.3 1.049e+04 7.260e-10
 36.91336    312.8 1.056e+04 7.570e-10
 36.93312    313.3 1.062e+04 7.891e-10
 36.95288    313.7 1.072e+04 8.339e-10
 36.97263    314.2 1.087e+04 9.064e-10
 36.99239    314.7 1.113e+04 1.031e-09
 37.01215    314.8 1.162e+04 1.252e-09
 37.03191    314.6 1.255e+04 1.654e-09
 37.04675    314.1 1.383e+04 2.352e-09
 37.05663    311.8 1.422e+04 2.633e-09
 37.07143    310.2 1.557e+04 3.818e-09
 37.08451    309.3 1.642e+04 4.766e-09
 37.09439    310.0 1.617e+04 4.342e-09
 37.11094    308.0 1.780e+04 7.327e-09
 37.13070    305.7 1.940e+04 1.289e-08
 37.14547    304.3 2.002e+04 1.647e-08
 37.15530    303.5 2.056e+04 1.910e-08
 37.16518    302.6 2.125e+04 2.085e-08
 37.17506    301.7 2.162e+04 2.077e-08
 37.18494    300.9 2.173e+04 1.996e-08
 37.19364    300.0 2.195e+04 1.770e-08
 37.19858    300.0 2.168e+04 1.724e-08
 37.20565    299.2 2.201e+04 1.515e-08
 37.21558    295.6 2.051e+04 7.270e-09
 37.22949    291.8 1.905e+04 3.050e-09
 37.24925    286.2 1.553e+04 1.313e-09
 37.26901    280.7 1.223e+04 1.027e-09
 37.28877    278.1 1.190e+04 1.000e-09
 37.30292    277.5 1.191e+04 1.000e-09
 37.31279    277.5 1.202e+04 1.134e-09
 37.32828    277.2 1.207e+04 1.138e-09
 37.34804    276.8 1.219e+04 1.151e-09
 37.36465    276.1 1.236e+04 1.167e-09
 37.37453    275.7 1.224e+04 1.212e-09
 37.38756    274.4 1.262e+04 1.332e-09
 37.40732    272.9 1.311e+04 1.560e-09
 37.42708    271.2 1.360e+04 1.923e-09
 37.44684    269.6 1.398e+04 2.371e-09
 37.46659    268.0 1.414e+04 2.640e-09
 37.48635    266.2 1.413e+04 2.637e-09
 37.50611    264.2 1.398e+04 2.455e-09
 37.52127    262.3 1.357e+04 1.957e-09
 37.52888    262.3 1.365e+04 1.988e-09
 37.53348    262.3 1.365e+04 1.798e-09
 37.55560    259.6 1.271e+04 7.853e-10
 37.59522    255.1 1.083e+04 3.408e-10
 37.63474    251.5 1.017e+04 3.077e-10
 37.67425    249.5 1.013e+04 3.120e-10
 37.71377    248.5 1.018e+04 3.500e-10
 37.73982    247.8 1.044e+04 4.222e-10
 37.75958    247.8 1.061e+04 4.721e-10
 37.79280    246.6 1.078e+04 4.841e-10
 37.83181    245.0 1.080e+04 4.584e-10
 37.85147    243.5 1.107e+04 4.744e-10
 37.86176    242.6 1.101e+04 4.331e-10
 37.88152    241.6 1.093e+04 3.926e-10
 37.90128    240.7 1.083e+04 3.593e-10
 37.92104    239.9 1.073e+04 3.378e-10
 37.94080    239.2 1.062e+04 3.341e-10
 37.95798    238.7 1.062e+04 3.368e-10
 37.96786    238.4 1.044e+04 3.326e-10
 37.98031    237.9 1.057e+04 3.664e-10
 38.00007    237.4 1.075e+04 4.212e-10
 38.01032    237.0 1.095e+04 4.939e-10
 38.02020    236.3 1.125e+04 5.938e-10
 38.03959    235.8 1.145e+04 6.999e-10
 38.05935    235.2 1.168e+04 8.234e-10
 38.07910    234.5 1.195e+04 9.736e-10
 38.09886    233.7 1.228e+04 1.166e-09
 38.11862    232.7 1.266e+04 1.420e-09
 38.13838    231.8 1.305e+04 1.749e-09
 38.15814    230.8 1.341e+04 2.129e-09
 38.16927    229.9 1.368e+04 2.478e-09
 38.17759    229.0 1.381e+04 2.801e-09
 38.18622    229.0 1.401e+04 2.926e-09
 38.19765    227.9 1.407e+04 2.944e-09
 38.21741    226.7 1.406e+04 2.912e-09
 38.23717    225.6 1.399e+04 2.784e-09
 38.25693    224.5 1.383e+04 2.589e-09
 38.27669    223.5 1.367e+04 2.387e-09
 38.29645    222.5 1.353e+04 2.186e-09
 38.31620    221.7 1.341e+04 2.001e-09
 38.34594    219.9 1.313e+04 1.703e-09
 38.38555    218.0 1.257e+04 1.289e-09
 38.42507    216.3 1.184e+04 9.249e-10
 38.46459    215.2 1.117e+04 6.832e-10
 38.48736    215.0 1.093e+04 6.165e-10
 38.50712    215.0 1.065e+04 5.033e-10
 38.54362    215.2 1.045e+04 4.605e-10
 38.57316    214.9 1.045e+04 4.697e-10
 38.59282    214.9 1.047e+04 4.841e-10
 38.61258    215.0 1.050e+04 5.052e-10
 38.62293    215.2 1.054e+04 5.288e-10
 38.63291    215.7 1.069e+04 5.855e-10
 38.64621    215.6 1.073e+04 6.130e-10
 38.65599    215.6 1.071e+04 5.929e-10
 38.67186    215.7 1.071e+04 5.906e-10
 38.69161    215.9 1.069e+04 5.813e-10
 38.71137    216.1 1.065e+04 5.667e-10
 38.73113    216.4 1.057e+04 5.501e-10
 38.75089    216.6 1.043e+04 5.182e-10
 38.78062    217.5 1.046e+04 5.333e-10
 38.80526    218.4 1.025e+04 4.727e-10
 38.82502    218.1 9.780e+03 3.505e-10
 38.85976    219.1 9.535e+03 2.918e-10
 38.89927    220.3 9.305e+03 2.481e-10
 38.93879    221.8 9.241e+03 2.380e-10
 38.97831    223.4 9.263e+03 2.414e-10
 39.01782    225.1 9.364e+03 2.577e-10
 39.04996    226.7 9.546e+03 2.903e-10
 39.06972    226.9 9.492e+03 2.781e-10
 39.09686    228.0 9.664e+03 3.148e-10
 39.12306    228.2 9.836e+03 3.602e-10
 39.13284    227.8 1.019e+04 4.588e-10
 39.14606    228.6 1.069e+04 6.193e-10
 39.16582    229.2 1.127e+04 8.503e-10
 39.18557    229.7 1.185e+04 1.161e-09
 39.20533    230.1 1.238e+04 1.528e-09
 39.22509    230.6 1.283e+04 1.879e-09
 39.24485    230.8 1.316e+04 1.984e-09
 39.26461    230.7 1.319e+04 1.961e-09
 39.27800    230.5 1.317e+04 1.851e-09
 39.28542    230.9 1.301e+04 1.817e-09
 39.29179    229.8 1.322e+04 1.698e-09
 39.30412    229.7 1.304e+04 1.372e-09
 39.32388    229.6 1.272e+04 9.808e-10
 39.34364    229.5 1.225e+04 6.804e-10
 39.37338    230.0 1.164e+04 4.531e-10
 39.41299    229.8 1.067e+04 2.788e-10
 39.44105    230.1 1.029e+04 2.622e-10
 39.46081    228.6 1.041e+04 3.248e-10
 39.48667    230.3 1.038e+04 3.421e-10
 39.50633    231.1 1.032e+04 3.276e-10
 39.52147    231.9 1.031e+04 3.466e-10
 39.54123    232.6 1.029e+04 3.667e-10
 39.56098    233.6 1.030e+04 3.925e-10
 39.58074    234.8 1.037e+04 4.340e-10
 39.59980    236.1 1.051e+04 4.945e-10
 39.60968    235.8 1.065e+04 5.635e-10
 39.62026    236.9 1.079e+04 6.221e-10
 39.64002    237.8 1.095e+04 6.860e-10
 39.65978    238.7 1.110e+04 7.585e-10
 39.67953    239.5 1.125e+04 8.406e-10
 39.69929    240.3 1.139e+04 9.286e-10
 39.71471    241.1 1.152e+04 1.002e-09
 39.72459    241.4 1.177e+04 1.085e-09
 39.73881    242.0 1.183e+04 1.090e-09
 39.75857    242.5 1.184e+04 1.085e-09
 39.76863    243.1 1.182e+04 1.061e-09
 39.77851    242.2 1.174e+04 1.015e-09
 39.79808    242.8 1.166e+04 9.607e-10
 39.81784    243.4 1.153e+04 8.973e-10
 39.83760    244.0 1.138e+04 8.432e-10
 39.85736    244.5 1.127e+04 8.216e-10
 39.87712    245.1 1.126e+04 8.218e-10
 39.89688    245.7 1.128e+04 8.300e-10
 39.91663    246.3 1.135e+04 8.687e-10
 39.92758    246.7 1.154e+04 9.559e-10
 39.93413    246.5 1.137e+04 8.757e-10
 39.94295    246.8 1.110e+04 7.869e-10
 39.95615    247.2 1.131e+04 8.682e-10
 39.97591    247.6 1.157e+04 9.833e-10
 39.99567    247.9 1.186e+04 1.129e-09
 40.01543    248.1 1.214e+04 1.295e-09
 40.03518    248.2 1.238e+04 1.464e-09
 40.05494    248.3 1.255e+04 1.608e-09
 40.07470    248.3 1.263e+04 1.702e-09
 40.08653    248.3 1.265e+04 1.761e-09
 40.09641    248.1 1.243e+04 1.567e-09
 40.11422    248.3 1.244e+04 1.612e-09
 40.13398    248.5 1.243e+04 1.613e-09
 40.15142    248.8 1.238e+04 1.596e-09
 40.16130    249.1 1.216e+04 1.511e-09
 40.17349    249.4 1.219e+04 1.541e-09
 40.19325    249.8 1.217e+04 1.540e-09
 40.21301    250.2 1.213e+04 1.528e-09
 40.23277    250.8 1.208e+04 1.489e-09
 40.24548    251.4 1.202e+04 1.421e-09
 40.25535    251.5 1.202e+04 1.346e-09
 40.27229    252.2 1.193e+04 1.239e-09
 40.29204    252.9 1.184e+04 1.144e-09
 40.31180    253.5 1.175e+04 1.068e-09
 40.33156    254.1 1.168e+04 1.013e-09
 40.35132    254.6 1.161e+04 9.756e-10
 40.36978    255.2 1.155e+04 9.684e-10
 40.37966    255.6 1.223e+04 1.307e-09
 40.39084    256.2 1.224e+04 1.285e-09
 40.40442    256.8 1.225e+04 1.287e-09
 40.41430    256.5 1.181e+04 1.110e-09
 40.43035    257.1 1.181e+04 1.140e-09
 40.45011    257.7 1.188e+04 1.207e-09
 40.46987    258.3 1.204e+04 1.314e-09
 40.48963    258.9 1.229e+04 1.467e-09
 40.50939    259.5 1.262e+04 1.678e-09
 40.52914    259.8 1.303e+04 1.956e-09
 40.54890    259.8 1.345e+04 2.296e-09
 40.56337    259.7 1.388e+04 2.706e-09
 40.57325    259.5 1.342e+04 2.304e-09
 40.58814    259.3 1.384e+04 2.667e-09
 40.59802    258.7 1.447e+04 3.366e-09
 40.60818    258.5 1.484e+04 3.917e-09
 40.62794    258.2 1.512e+04 4.305e-09
 40.64770    257.7 1.519e+04 4.357e-09
 40.66745    257.1 1.517e+04 4.292e-09
 40.68721    256.5 1.502e+04 3.949e-09
 40.70697    255.5 1.464e+04 3.296e-09
 40.72232    254.4 1.403e+04 2.509e-09
 40.73220    254.3 1.377e+04 2.284e-09
 40.74649    253.3 1.314e+04 1.717e-09
 40.76625    252.3 1.241e+04 1.246e-09
 40.79598    252.1 1.171e+04 8.560e-10
 40.81657    250.9 1.046e+04 4.835e-10
 40.83633    250.4 1.023e+04 4.518e-10
 40.87511    250.3 9.740e+03 3.501e-10
 40.91463    250.6 9.690e+03 3.432e-10
 40.95415    251.4 9.687e+03 3.431e-10
 40.99366    252.5 9.712e+03 3.470e-10
 41.03053    253.7 9.791e+03 3.625e-10
 41.05029    254.0 9.943e+03 3.974e-10
 41.07270    255.0 1.000e+04 4.249e-10
 41.10224    255.5 1.001e+04 4.347e-10
 41.12190    256.8 1.005e+04 4.531e-10
 41.14165    258.2 1.014e+04 4.856e-10
 41.16141    259.2 1.027e+04 5.192e-10
 41.18117    260.0 1.040e+04 5.510e-10
 41.19916    260.7 1.053e+04 5.855e-10
 41.20904    260.9 1.066e+04 6.422e-10
 41.22069    261.6 1.079e+04 6.842e-10
 41.24045    262.3 1.094e+04 7.368e-10
 41.25308    263.1 1.110e+04 7.985e-10
 41.26296    263.1 1.090e+04 6.946e-10
 41.27996    263.8 1.103e+04 7.479e-10
 41.29972    264.5 1.118e+04 8.086e-10
 41.31948    265.2 1.133e+04 8.746e-10
 41.33924    265.8 1.149e+04 9.386e-10
 41.35811    266.5 1.163e+04 9.948e-10
 41.36799    266.4 1.179e+04 1.052e-09
 41.37876    266.9 1.190e+04 1.079e-09
 41.39851    267.3 1.190e+04 1.073e-09
 41.41827    267.7 1.187e+04 1.043e-09
 41.43803    268.1 1.176e+04 9.594e-10
 41.45779    268.4 1.157e+04 8.419e-10
 41.47144    268.3 1.138e+04 7.360e-10
 41.48132    269.1 1.180e+04 9.368e-10
 41.49731    269.0 1.174e+04 8.704e-10
 41.51706    268.5 1.186e+04 8.812e-10
 41.53682    264.5 1.350e+04 1.470e-09
 41.55658    263.2 1.444e+04 2.164e-09
 41.57634    262.9 1.529e+04 3.317e-09
 41.59610    262.9 1.604e+04 4.861e-09
 41.61586    263.3 1.657e+04 6.171e-09
 41.63561    263.7 1.702e+04 7.069e-09
 41.65537    263.9 1.705e+04 6.914e-09
 41.67513    263.9 1.692e+04 6.011e-09
 41.68589    263.7 1.649e+04 4.318e-09
 41.69067    261.1 1.504e+04 1.978e-09
 41.69968    261.7 1.526e+04 2.329e-09
 41.71465    260.4 1.402e+04 1.217e-09
 41.73441    258.2 1.217e+04 6.437e-10
 41.75417    256.2 1.049e+04 4.370e-10
 41.77392    255.7 9.987e+03 4.178e-10
 41.79368    255.8 9.988e+03 4.177e-10
 41.81344    256.4 1.002e+04 4.230e-10
 41.83320    257.2 1.013e+04 4.448e-10
 41.84484    257.9 1.029e+04 4.830e-10
 41.85472    256.5 1.027e+04 4.738e-10
 41.87272    257.0 1.044e+04 5.234e-10
 41.89247    257.4 1.060e+04 5.735e-10
 41.90815    257.8 1.072e+04 6.199e-10
 41.91803    257.6 1.087e+04 6.826e-10
 41.93199    258.2 1.097e+04 7.318e-10
 41.95175    258.7 1.111e+04 7.844e-10
 41.97151    258.5 1.129e+04 8.346e-10
 41.99127    257.4 1.225e+04 9.740e-10
 42.00378    255.2 1.420e+04 1.346e-09
 42.01366    249.4 1.620e+04 2.311e-09
 42.03078    247.3 1.718e+04 3.471e-09
 42.04555    247.2 1.741e+04 3.862e-09
 42.05538    246.9 1.779e+04 4.416e-09
 42.06526    246.0 1.848e+04 5.659e-09
 42.07514    244.6 1.930e+04 7.683e-09
 42.08316    243.1 1.999e+04 1.055e-08
 42.08810    240.4 2.056e+04 1.332e-08
 42.09490    238.7 2.190e+04 1.525e-08
 42.10478    236.6 2.275e+04 1.706e-08
 42.11466    234.0 2.401e+04 1.608e-08
 42.12454    230.8 2.451e+04 1.396e-08
 42.13135    227.0 2.467e+04 1.026e-08
 42.13629    227.9 2.464e+04 9.996e-09
 42.14430    224.0 2.378e+04 6.742e-09
 42.15418    220.1 2.170e+04 4.440e-09
 42.16264    216.2 1.906e+04 3.013e-09
 42.17256    212.4 1.682e+04 2.226e-09
 42.18885    206.0 1.592e+04 1.761e-09
 42.20861    197.5 1.606e+04 1.779e-09
 42.22837    188.7 1.648e+04 2.138e-09
 42.24813    182.0 1.653e+04 3.248e-09
 42.26788    179.3 1.693e+04 4.340e-09
 42.28265    177.3 1.768e+04 5.499e-09
 42.29248    175.4 1.843e+04 6.950e-09
 42.30236    173.4 1.901e+04 8.425e-09
 42.31224    171.3 1.943e+04 8.566e-09
 42.32158    168.9 1.951e+04 8.395e-09
 42.32652    167.5 1.929e+04 7.519e-09
 42.33200    164.7 1.910e+04 6.504e-09
 42.34482    161.3 1.829e+04 5.205e-09
 42.35474    160.6 1.834e+04 5.256e-09
 42.36668    156.4 1.727e+04 3.988e-09
 42.38643    152.1 1.596e+04 2.756e-09
 42.40619    148.3 1.462e+04 1.777e-09
 42.42595    144.9 1.340e+04 1.095e-09
 42.44571    141.7 1.234e+04 6.763e-10
 42.46547    138.7 1.158e+04 4.701e-10
 42.48063    136.1 1.143e+04 4.371e-10
 42.49051    136.7 1.125e+04 3.998e-10
 42.50498    134.9 1.125e+04 4.015e-10
 42.52474    133.3 1.137e+04 4.169e-10
 42.54450    131.7 1.171e+04 4.747e-10
 42.56322    130.4 1.215e+04 5.807e-10
 42.57310    129.2 1.249e+04 6.971e-10
 42.58402    128.3 1.283e+04 8.430e-10
 42.60378    127.6 1.310e+04 9.510e-10
 42.62353    126.9 1.335e+04 9.788e-10
 42.63958    126.0 1.350e+04 9.858e-10
 42.64946    126.7 1.321e+04 9.085e-10
 42.66305    125.4 1.353e+04 9.440e-10
 42.68281    123.2 1.415e+04 1.042e-09
 42.70257    120.2 1.499e+04 1.253e-09
 42.72233    117.1 1.572e+04 1.581e-09
 42.74208    114.6 1.593e+04 1.906e-09
 42.76184    112.4 1.579e+04 1.967e-09
 42.78158    109.4 1.569e+04 1.835e-09
 42.79635    107.0 1.535e+04 1.561e-09
 42.80337    105.0 1.693e+04 1.328e-09
 42.80831    106.3 1.555e+04 1.340e-09
 42.81608    101.8 2.120e+04 1.211e-09
 42.82596     74.1 4.593e+04 3.740e-09
 42.83584     45.0 3.302e+04 1.044e-07
 42.84572     15.5 2.801e+04 8.901e-07
 42.85560    -11.0 3.850e+04 3.492e-07
 42.86548    -38.9 6.438e+04 1.917e-08
 42.87536    -71.4 3.117e+04 9.309e-09
 42.88284    -81.7 1.884e+04 7.417e-09
 42.88778    -79.8 2.292e+04 7.351e-09
 42.90010    -80.6 2.276e+04 5.724e-09
 42.91991    -90.9 1.819e+04 3.233e-09
 42.93967    -93.9 1.673e+04 2.249e-09
 42.95747    -95.5 1.585e+04 1.860e-09
 42.96735    -95.2 1.744e+04 3.186e-09
 42.97919    -95.8 1.685e+04 2.687e-09
 42.99894    -96.0 1.602e+04 2.225e-09
 43.00981    -96.0 1.515e+04 1.840e-09
 43.01969    -93.7 1.555e+04 1.918e-09
 43.03846    -93.4 1.487e+04 1.591e-09
 43.05822    -93.2 1.474e+04 1.418e-09
 43.07798    -94.1 1.478e+04 1.323e-09
 43.09774    -93.8 1.456e+04 1.145e-09
 43.12747    -93.2 1.436e+04 1.003e-09
 43.16709    -92.2 1.334e+04 6.906e-10
 43.20660    -89.8 1.233e+04 5.182e-10
 43.24612    -87.1 1.175e+04 4.414e-10
 43.27557    -84.3 1.141e+04 3.938e-10
 43.29532    -84.6 1.286e+04 6.675e-10
 43.32515    -81.7 1.268e+04 6.030e-10
 43.36467    -78.8 1.253e+04 5.572e-10
 43.40419    -75.9 1.231e+04 5.010e-10
 43.43684    -73.0 1.199e+04 4.268e-10
 43.45660    -71.0 1.219e+04 4.864e-10
 43.48322    -68.3 1.217e+04 4.707e-10
 43.52274    -65.8 1.223e+04 4.633e-10
 43.56225    -63.8 1.221e+04 4.427e-10
 43.59346    -62.6 1.189e+04 4.362e-10
 43.61322    -63.4 1.300e+04 8.329e-10
 43.63131    -63.7 1.249e+04 6.667e-10
 43.65097    -62.3 1.229e+04 6.990e-10
 43.66488    -61.9 1.200e+04 7.257e-10
 43.67476    -59.8 1.213e+04 8.950e-10
 43.69049    -59.0 1.237e+04 1.008e-09
 43.71025    -58.5 1.271e+04 1.133e-09
 43.73000    -58.4 1.319e+04 1.282e-09
 43.74976    -59.0 1.376e+04 1.466e-09
 43.76209    -60.1 1.414e+04 1.599e-09
 43.77197    -61.0 1.414e+04 1.561e-09
 43.78928    -62.1 1.398e+04 1.460e-09
 43.80904    -63.3 1.362e+04 1.323e-09
 43.82880    -64.2 1.332e+04 1.213e-09
 43.84855    -64.8 1.307e+04 1.121e-09
 43.86831    -65.2 1.284e+04 1.047e-09
 43.88324    -65.3 1.263e+04 9.909e-10
 43.89312    -65.1 1.261e+04 9.956e-10
 43.90783    -64.7 1.241e+04 9.492e-10
 43.92104    -63.6 1.215e+04 8.644e-10
 43.93092    -64.2 1.214e+04 9.090e-10
 43.94735    -62.5 1.174e+04 7.326e-10
 43.96711    -60.6 1.122e+04 5.421e-10
 43.98686    -58.8 1.091e+04 4.122e-10
 44.00662    -57.8 1.097e+04 3.727e-10
 44.03636    -59.0 1.082e+04 3.178e-10
 44.07597    -58.5 1.046e+04 2.305e-10
 44.11549    -56.3 9.997e+03 1.633e-10
 44.15501    -54.0 9.863e+03 1.370e-10
 44.19452    -51.9 9.849e+03 1.322e-10
 44.22925    -50.1 1.027e+04 1.497e-10
 44.24901    -51.3 9.489e+03 1.061e-10
 44.27356    -49.8 1.021e+04 1.712e-10
 44.31027    -48.2 1.089e+04 2.822e-10
 44.33002    -47.6 1.111e+04 3.307e-10
 44.35259    -46.2 1.115e+04 3.657e-10
 44.38213    -44.7 1.106e+04 3.944e-10
 44.39789    -42.5 1.135e+04 4.362e-10
 44.40777    -43.6 1.104e+04 3.697e-10
 44.42155    -40.9 1.113e+04 3.821e-10
 44.44131    -39.9 1.117e+04 3.791e-10
 44.46107    -37.1 1.139e+04 3.853e-10
 44.48082    -36.4 1.142e+04 3.686e-10
 44.51056    -34.7 1.177e+04 3.380e-10
 44.54715    -34.6 1.193e+04 3.078e-10
 44.56691    -37.6 1.166e+04 3.088e-10
 44.58969    -39.6 1.234e+04 3.458e-10
 44.61923    -42.5 1.210e+04 3.811e-10
 44.63889    -41.8 1.323e+04 5.610e-10
 44.65865    -42.8 1.387e+04 7.992e-10
 44.67841    -42.9 1.433e+04 1.024e-09
 44.69817    -44.4 1.429e+04 1.063e-09
 44.71578    -45.3 1.404e+04 1.029e-09
 44.72566    -48.5 1.361e+04 9.288e-10
 44.73768    -50.2 1.320e+04 7.621e-10
 44.75666    -53.4 1.299e+04 5.824e-10
 44.76654    -52.2 1.285e+04 6.168e-10
 44.77720    -56.9 1.272e+04 4.898e-10
 44.79696    -69.1 1.824e+04 4.106e-10
 44.81672   -103.0 4.803e+04 6.341e-10
 44.83149   -121.6 4.069e+04 3.720e-09
 44.84132   -126.6 3.909e+04 6.743e-09
 44.85120   -137.6 3.311e+04 2.438e-08
 44.86107   -145.0 3.050e+04 4.271e-08
 44.87068   -153.1 2.987e+04 4.801e-08
 44.87562   -153.4 2.958e+04 4.997e-08
 44.87957   -161.6 2.891e+04 4.523e-08
 44.88451   -158.2 2.849e+04 4.243e-08
 44.89071   -166.9 2.789e+04 2.545e-08
 44.90059   -177.3 2.630e+04 1.031e-08
 44.91047   -186.6 2.210e+04 5.170e-09
 44.92035   -191.1 2.010e+04 4.065e-09
 44.93023   -192.4 1.985e+04 3.783e-09
 44.94011   -192.8 1.986e+04 3.675e-09
 44.95498   -192.9 1.957e+04 3.450e-09
 44.97478   -193.8 1.874e+04 3.120e-09
 44.98490   -193.4 1.879e+04 2.838e-09
 44.98979   -193.1 1.935e+04 3.055e-09
 44.99938   -192.8 1.905e+04 2.963e-09
 45.00926   -192.1 1.864e+04 2.754e-09
 45.01914   -191.3 1.857e+04 2.671e-09
 45.02902   -190.3 1.839e+04 2.544e-09
 45.03852   -189.6 1.830e+04 2.518e-09
 45.04346   -188.7 1.769e+04 2.338e-09
 45.04878   -187.9 1.765e+04 2.276e-09
 45.05866   -187.3 1.778e+04 2.248e-09
 45.06854   -188.6 2.096e+04 2.235e-09
 45.07842   -199.9 4.381e+04 1.982e-09
 45.08830   -222.7 6.755e+04 4.196e-09
 45.09395   -238.9 5.222e+04 3.066e-08
 45.09640   -243.3 2.824e+04 9.415e-07
 45.10060   -248.8 1.764e+04 2.173e-05
 45.10554   -258.3 1.414e+04 4.350e-04
 45.11048   -273.8 1.335e+04 8.527e-04
 45.11542   -294.6 1.622e+04 6.548e-05
 45.12036   -319.0 2.323e+04 2.386e-06
 45.12289   -335.5 2.938e+04 1.492e-07
 45.12536   -330.1 2.887e+04 2.711e-07
 45.13023   -337.4 3.025e+04 7.132e-08
 45.13517   -338.9 3.010e+04 5.274e-08
 45.14011   -339.7 2.985e+04 4.640e-08
 45.14755   -341.3 2.914e+04 3.763e-08
 45.15745   -345.2 2.583e+04 2.120e-08
 45.16733   -347.1 2.292e+04 1.295e-08
 45.17721   -347.2 2.253e+04 9.376e-09
 45.18709   -347.2 2.225e+04 6.670e-09
 45.19697   -347.4 2.156e+04 4.682e-09
 45.20241   -347.7 2.077e+04 3.515e-09
 45.20366   -344.8 2.033e+04 5.129e-09
 45.20809   -344.0 2.075e+04 6.315e-09
 45.21673   -343.6 2.012e+04 4.851e-09
 45.22661   -343.2 1.946e+04 3.988e-09
 45.23648   -342.1 1.899e+04 3.619e-09
 45.25135   -340.9 1.883e+04 3.506e-09
 45.27116   -340.2 1.823e+04 2.961e-09
 45.29092   -339.3 1.681e+04 2.179e-09
 45.31068   -338.3 1.510e+04 1.632e-09
 45.33043   -336.6 1.398e+04 1.338e-09
 45.35019   -334.8 1.377e+04 1.207e-09
 45.36145   -333.0 1.377e+04 1.146e-09
 45.37133   -331.1 1.342e+04 1.248e-09
 45.38971   -329.6 1.346e+04 1.191e-09
 45.40947   -328.0 1.351e+04 1.181e-09
 45.42161   -326.5 1.359e+04 1.183e-09
 45.43149   -325.6 1.280e+04 8.687e-10
 45.44898   -324.0 1.282e+04 8.665e-10
 45.46874   -322.5 1.291e+04 8.701e-10
 45.48850   -321.0 1.292e+04 9.042e-10
 45.50826   -319.4 1.285e+04 9.591e-10
 45.52040   -317.7 1.277e+04 1.013e-09
 45.53028   -316.3 1.305e+04 1.127e-09
 45.54778   -314.7 1.300e+04 1.206e-09
 45.56754   -313.1 1.291e+04 1.262e-09
 45.58729   -311.6 1.285e+04 1.281e-09
 45.60705   -310.2 1.283e+04 1.282e-09
 45.62681   -308.8 1.282e+04 1.278e-09
 45.63997   -307.5 1.283e+04 1.275e-09
 45.64984   -306.6 1.227e+04 9.660e-10
 45.66633   -305.5 1.231e+04 9.810e-10
 45.67935   -304.7 1.260e+04 1.032e-09
 45.68923   -303.1 1.240e+04 1.130e-09
 45.70584   -302.5 1.257e+04 1.260e-09
 45.72560   -302.1 1.311e+04 1.510e-09
 45.74536   -301.5 1.378e+04 1.878e-09
 45.76512   -300.9 1.442e+04 2.312e-09
 45.78488   -300.5 1.492e+04 2.698e-09
 45.80464   -300.3 1.522e+04 2.904e-09
 45.82439   -300.2 1.529e+04 2.942e-09
 45.83830   -300.7 1.526e+04 2.886e-09
 45.84818   -299.4 1.608e+04 3.879e-09
 45.85832   -300.0 1.608e+04 3.649e-09
 45.86820   -300.1 1.639e+04 4.109e-09
 45.88367   -300.8 1.609e+04 3.643e-09
 45.90343   -301.6 1.553e+04 3.115e-09
 45.92319   -302.4 1.500e+04 2.780e-09
 45.94294   -303.2 1.462e+04 2.655e-09
 45.96270   -304.0 1.443e+04 2.636e-09
 45.98246   -304.7 1.432e+04 2.639e-09
 45.99725   -305.3 1.417e+04 2.653e-09
 46.00713   -304.0 1.442e+04 2.554e-09
 46.02198   -304.5 1.418e+04 2.448e-09
 46.04174   -304.8 1.390e+04 2.300e-09
 46.06150   -304.9 1.356e+04 2.103e-09
 46.07668   -304.9 1.317e+04 1.870e-09
 46.08656   -305.7 1.281e+04 1.608e-09
 46.10101   -305.6 1.235e+04 1.367e-09
 46.12077   -305.4 1.188e+04 1.134e-09
 46.14053   -304.8 1.139e+04 9.149e-10
 46.15620   -303.7 1.090e+04 7.197e-10
 46.16607   -302.8 1.115e+04 8.147e-10
 46.18005   -301.7 1.067e+04 6.446e-10
 46.19980   -300.3 1.030e+04 5.109e-10
 46.21956   -298.6 1.006e+04 4.127e-10
 46.23932   -296.9 9.932e+03 3.504e-10
 46.25908   -295.6 9.882e+03 3.211e-10
 46.28881   -295.1 9.871e+03 3.015e-10
 46.32843   -293.8 9.750e+03 2.641e-10
 46.36795   -292.0 9.525e+03 2.257e-10
 46.40746   -289.8 9.322e+03 1.960e-10
 46.44698   -287.6 9.199e+03 1.772e-10
 46.47429   -285.4 9.158e+03 1.679e-10
 46.49405   -283.7 9.458e+03 2.090e-10
 46.51359   -281.8 9.451e+03 2.066e-10
 46.53334   -282.3 9.079e+03 1.720e-10
 46.56553   -280.4 9.087e+03 1.725e-10
 46.60505   -278.8 9.291e+03 1.933e-10
 46.64456   -277.1 9.599e+03 2.481e-10
 46.68408   -275.4 9.833e+03 3.187e-10
 46.72360   -273.7 9.966e+03 3.854e-10
 46.76311   -272.0 1.000e+04 4.270e-10
 46.79218   -270.2 9.989e+03 4.377e-10
 46.81194   -269.3 1.021e+04 5.073e-10
 46.84215   -267.3 9.976e+03 4.823e-10
 46.88166   -265.0 9.670e+03 4.267e-10
 46.92118   -262.7 9.389e+03 3.742e-10
 46.95030   -260.4 9.143e+03 3.292e-10
 46.97006   -260.4 9.123e+03 3.263e-10
 47.00021   -258.2 8.918e+03 2.867e-10
 47.03973   -255.9 8.695e+03 2.436e-10
 47.07925   -253.6 8.436e+03 1.996e-10
 47.11008   -251.2 8.166e+03 1.596e-10
 47.12984   -250.2 8.264e+03 1.840e-10
 47.15828   -247.7 8.036e+03 1.523e-10
 47.19780   -245.3 7.859e+03 1.285e-10
 47.23731   -242.9 7.751e+03 1.132e-10
 47.27683   -240.5 7.722e+03 1.052e-10
 47.31635   -238.1 7.723e+03 1.029e-10
 47.35587   -235.9 7.726e+03 1.026e-10
 47.38701   -233.9 7.738e+03 1.029e-10
 47.40677   -233.8 7.718e+03 9.790e-11
 47.42798   -232.2 7.783e+03 9.939e-11
 47.44773   -231.3 7.893e+03 1.244e-10
 47.47442   -230.1 8.191e+03 1.544e-10
 47.51393   -229.1 8.637e+03 2.161e-10
 47.55345   -228.0 9.084e+03 3.034e-10
 47.59297   -227.1 9.478e+03 4.013e-10
 47.63248   -226.4 9.753e+03 4.771e-10
 47.67200   -226.0 9.854e+03 5.028e-10
 47.71152   -225.7 9.861e+03 5.048e-10
 47.74587   -225.4 9.775e+03 4.744e-10
 47.76563   -224.3 1.012e+04 6.080e-10
 47.79055   -224.1 9.924e+03 5.169e-10
 47.82372   -224.1 9.830e+03 4.606e-10
 47.84348   -224.1 9.505e+03 3.454e-10
 47.86958   -224.1 9.508e+03 3.363e-10
 47.90910   -225.4 9.707e+03 3.445e-10
 47.94862   -228.1 1.083e+04 4.985e-10
 47.98813   -231.7 1.195e+04 8.516e-10
 48.02765   -235.9 1.263e+04 1.329e-09
 48.05186   -239.0 1.280e+04 1.737e-09
 48.06164   -238.9 1.280e+04 1.678e-09
 48.07345   -240.8 1.280e+04 1.846e-09
 48.08333   -240.4 1.270e+04 1.762e-09
 48.09661   -242.4 1.264e+04 1.831e-09
 48.11637   -244.1 1.269e+04 1.893e-09
 48.13613   -246.1 1.285e+04 2.023e-09
 48.15588   -248.2 1.316e+04 2.260e-09
 48.17564   -250.2 1.354e+04 2.619e-09
 48.19540   -252.0 1.392e+04 3.065e-09
 48.21516   -253.6 1.422e+04 3.488e-09
 48.23240   -255.0 1.435e+04 3.718e-09
 48.24228   -254.4 1.423e+04 3.517e-09
 48.25468   -255.7 1.435e+04 3.727e-09
 48.27012   -256.9 1.436e+04 3.764e-09
 48.28000   -256.3 1.429e+04 3.713e-09
 48.29419   -257.2 1.413e+04 3.606e-09
 48.31395   -257.8 1.372e+04 3.108e-09
 48.33371   -258.3 1.319e+04 2.495e-09
 48.35347   -258.8 1.262e+04 1.947e-09
 48.37323   -259.4 1.207e+04 1.535e-09
 48.39135   -259.9 1.157e+04 1.247e-09
 48.40123   -259.6 1.245e+04 1.886e-09
 48.41274   -259.9 1.196e+04 1.577e-09
 48.43250   -259.9 1.155e+04 1.355e-09
 48.45226   -259.9 1.122e+04 1.198e-09
 48.47202   -259.7 1.096e+04 1.089e-09
 48.48847   -259.2 1.077e+04 1.017e-09
 48.49835   -259.0 1.098e+04 1.137e-09
 48.51154   -258.4 1.090e+04 1.103e-09
 48.53129   -257.7 1.088e+04 1.095e-09
 48.55030   -257.1 1.089e+04 1.096e-09
 48.56018   -256.9 1.134e+04 1.400e-09
 48.57081   -256.3 1.139e+04 1.412e-09
 48.59057   -255.7 1.152e+04 1.459e-09
 48.61033   -255.0 1.167e+04 1.523e-09
 48.63009   -254.2 1.181e+04 1.581e-09
 48.64984   -253.5 1.192e+04 1.625e-09
 48.66960   -252.8 1.201e+04 1.658e-09
 48.68936   -252.5 1.214e+04 1.715e-09
 48.70683   -252.5 1.252e+04 1.887e-09
 48.71671   -252.0 1.274e+04 2.234e-09
 48.71912   -252.7 1.340e+04 2.596e-09
 48.72900   -253.9 1.522e+04 4.730e-09
 48.74864   -255.3 1.654e+04 6.969e-09
 48.76840   -256.2 1.810e+04 1.181e-08
 48.78316   -256.0 1.884e+04 1.534e-08
 48.79300   -256.0 1.970e+04 2.078e-08
 48.79850   -255.9 2.029e+04 2.669e-08
 48.80344   -255.9 2.058e+04 3.070e-08
 48.81275   -256.0 2.142e+04 4.075e-08
 48.82085   -256.1 2.218e+04 5.221e-08
 48.82579   -256.4 2.320e+04 8.520e-08
 48.83251   -258.1 2.365e+04 9.814e-08
 48.84239   -261.1 2.366e+04 1.005e-07
 48.85227   -263.2 2.304e+04 9.070e-08
 48.86215   -263.9 2.228e+04 6.826e-08
 48.87203   -264.4 2.182e+04 5.043e-08
 48.87798   -265.4 2.171e+04 3.911e-08
 48.88291   -266.2 2.194e+04 2.860e-08
 48.89179   -268.2 2.195e+04 2.481e-08
 48.90167   -270.4 2.176e+04 2.274e-08
 48.91155   -272.6 2.145e+04 2.172e-08
 48.92142   -274.7 2.112e+04 2.139e-08
 48.93003   -276.6 2.097e+04 2.138e-08
 48.93497   -278.1 2.023e+04 1.704e-08
 48.94617   -280.2 2.013e+04 1.719e-08
 48.96598   -283.4 1.999e+04 1.764e-08
 48.98574   -285.3 1.943e+04 1.695e-08
 49.00550   -286.6 1.841e+04 1.296e-08
 49.02525   -287.2 1.732e+04 8.379e-09
 49.03702   -287.9 1.605e+04 4.955e-09
 49.04690   -289.7 1.519e+04 3.335e-09
 49.06477   -291.0 1.376e+04 2.164e-09
 49.08453   -291.7 1.268e+04 1.629e-09
 49.10429   -291.9 1.209e+04 1.405e-09
 49.12405   -291.7 1.184e+04 1.312e-09
 49.14354   -290.9 1.173e+04 1.263e-09
 49.15342   -290.7 1.191e+04 1.346e-09
 49.16356   -290.0 1.185e+04 1.324e-09
 49.18332   -289.3 1.179e+04 1.291e-09
 49.19597   -288.6 1.172e+04 1.238e-09
 49.20585   -288.6 1.167e+04 1.205e-09
 49.22284   -288.0 1.155e+04 1.118e-09
 49.24260   -287.4 1.141e+04 1.023e-09
 49.26235   -286.8 1.125e+04 9.293e-10
 49.28211   -286.2 1.110e+04 8.443e-10
 49.30187   -285.6 1.094e+04 7.717e-10
 49.32163   -285.0 1.078e+04 7.099e-10
 49.34139   -284.3 1.059e+04 6.532e-10
 49.35492   -283.4 1.038e+04 5.950e-10
 49.36480   -283.0 1.020e+04 5.430e-10
 49.37178   -281.5 1.000e+04 4.773e-10
 49.38166   -281.6 1.006e+04 4.944e-10
 49.41064   -280.1 9.894e+03 4.266e-10
 49.45025   -278.7 9.801e+03 3.919e-10
 49.48977   -276.3 9.616e+03 3.490e-10
 49.52929   -273.9 9.445e+03 3.111e-10
 49.56881   -271.5 9.313e+03 2.793e-10
 49.59033   -269.2 9.210e+03 2.516e-10
 49.61009   -269.4 9.126e+03 2.372e-10
 49.64784   -267.0 9.109e+03 2.262e-10
 49.67301   -264.6 9.122e+03 2.205e-10
 49.69277   -264.4 8.950e+03 1.766e-10
 49.72687   -262.3 9.125e+03 1.827e-10
 49.76639   -260.4 9.350e+03 2.107e-10
 49.80591   -258.8 9.682e+03 2.643e-10
 49.84542   -257.3 1.009e+04 3.574e-10
 49.88494   -256.1 1.054e+04 5.004e-10
 49.92446   -254.8 1.096e+04 6.910e-10
 49.96397   -253.5 1.133e+04 8.990e-10
 49.99091   -252.2 1.161e+04 1.065e-09
 50.01066   -252.8 1.166e+04 1.079e-09
 50.02704   -251.5 1.174e+04 1.103e-09
 50.04680   -253.0 1.163e+04 9.414e-10
 50.08252   -251.9 1.155e+04 8.060e-10
 50.12204   -251.2 1.139e+04 6.708e-10
 50.16156   -250.6 1.114e+04 5.647e-10
 50.20107   -250.1 1.085e+04 4.937e-10
 50.24059   -249.5 1.056e+04 4.462e-10
 50.28011   -248.7 1.029e+04 4.008e-10
 50.30880   -247.6 1.001e+04 3.496e-10
 50.32856   -247.9 9.998e+03 3.376e-10
 50.35914   -246.5 9.755e+03 2.779e-10
 50.39866   -245.1 9.544e+03 2.256e-10
 50.43817   -243.7 9.362e+03 1.843e-10
 50.46375   -242.2 9.265e+03 1.577e-10
 50.48351   -242.6 9.064e+03 1.408e-10
 50.51721   -241.0 9.074e+03 1.362e-10
 50.55672   -239.9 9.103e+03 1.363e-10
 50.59624   -239.7 9.353e+03 1.587e-10
 50.62670   -239.9 1.028e+04 2.980e-10
 50.64646   -242.4 1.088e+04 5.158e-10
 50.67528   -242.6 1.153e+04 8.520e-10
 50.71479   -243.0 1.189e+04 1.049e-09
 50.75431   -244.4 1.195e+04 1.080e-09
 50.79383   -246.0 1.163e+04 8.517e-10
 50.83334   -247.7 1.062e+04 4.557e-10
 50.87286   -249.7 9.336e+03 2.401e-10
 50.90047   -251.4 8.833e+03 1.921e-10
 50.92022   -251.7 8.640e+03 1.693e-10
 50.94459   -252.2 8.606e+03 1.665e-10
 50.96435   -253.7 8.655e+03 1.972e-10
 50.99141   -254.0 8.949e+03 2.652e-10
 51.03093   -254.6 9.803e+03 4.268e-10
 51.07044   -255.4 1.062e+04 6.681e-10
 51.10996   -256.4 1.129e+04 9.553e-10
 51.14948   -257.6 1.177e+04 1.228e-09
 51.18899   -259.1 1.211e+04 1.436e-09
 51.22851   -260.7 1.233e+04 1.579e-09
 51.26249   -262.6 1.245e+04 1.653e-09
 51.28225   -262.8 1.215e+04 1.386e-09
 51.30754   -264.9 1.235e+04 1.449e-09
 51.33708   -266.3 1.217e+04 1.332e-09
 51.35684   -266.7 1.131e+04 8.263e-10
 51.38658   -269.1 1.145e+04 7.974e-10
 51.41612   -270.0 1.165e+04 9.091e-10
 51.43112   -271.2 1.179e+04 9.477e-10
 51.44100   -273.2 1.253e+04 1.045e-09
 51.45554   -276.5 1.461e+04 1.552e-09
 51.47529   -280.0 1.760e+04 3.147e-09
 51.49505   -282.4 1.939e+04 6.391e-09
 51.51481   -283.9 2.023e+04 1.111e-08
 51.53457   -285.0 2.044e+04 1.587e-08
 51.55433   -285.9 2.024e+04 1.816e-08
 51.56522   -286.3 2.008e+04 1.845e-08
 51.57510   -286.7 1.914e+04 1.291e-08
 51.59007   -286.8 1.815e+04 9.421e-09
 51.59995   -288.5 1.671e+04 5.661e-09
 51.61360   -289.7 1.510e+04 3.387e-09
 51.63336   -291.1 1.338e+04 2.135e-09
 51.65312   -292.0 1.200e+04 1.493e-09
 51.67288   -292.3 1.118e+04 1.155e-09
 51.69264   -292.0 1.071e+04 9.482e-10
 51.71240   -291.0 1.034e+04 7.938e-10
 51.73215   -290.0 9.998e+03 6.640e-10
 51.74902   -289.2 9.694e+03 5.596e-10
 51.75890   -290.1 9.575e+03 5.264e-10
 51.77167   -289.3 9.504e+03 4.853e-10
 51.78357   -289.0 9.508e+03 4.755e-10
 51.79345   -289.0 9.258e+03 4.323e-10
 51.81119   -288.9 9.342e+03 4.392e-10
 51.83095   -289.0 9.732e+03 5.078e-10
 51.85070   -288.9 1.029e+04 6.602e-10
 51.87046   -288.4 1.088e+04 8.839e-10
 51.89022   -287.6 1.142e+04 1.149e-09
 51.90797   -286.7 1.184e+04 1.393e-09
 51.91785   -287.4 1.165e+04 1.266e-09
 51.92974   -286.6 1.168e+04 1.279e-09
 51.94950   -285.9 1.165e+04 1.243e-09
 51.96925   -285.1 1.144e+04 1.074e-09
 51.98901   -284.3 1.107e+04 8.525e-10
 52.00193   -283.5 1.061e+04 6.481e-10
 52.01181   -283.5 9.920e+03 4.469e-10
 52.02853   -282.6 9.581e+03 3.560e-10
 52.04829   -281.2 9.404e+03 3.096e-10
 52.06692   -279.7 9.368e+03 2.980e-10
 52.07679   -279.6 9.323e+03 2.936e-10
 52.09778   -278.6 9.383e+03 2.937e-10
 52.13740   -277.1 9.351e+03 2.790e-10
 52.17691   -275.1 9.279e+03 2.594e-10
 52.21060   -272.7 9.225e+03 2.420e-10
 52.23011   -272.7 9.188e+03 2.261e-10
 52.23594   -272.5 8.834e+03 1.659e-10
 52.25595   -270.3 8.889e+03 1.613e-10
 52.29546   -268.1 8.908e+03 1.602e-10
 52.33498   -266.2 8.951e+03 1.598e-10
 52.37450   -264.5 9.165e+03 1.618e-10
 52.41401   -263.0 9.309e+03 1.827e-10
 52.45353   -261.7 9.450e+03 2.284e-10
 52.49305   -260.5 9.661e+03 2.974e-10
 52.53256   -259.4 9.895e+03 3.791e-10
 52.55383   -258.5 1.008e+04 4.499e-10
 52.57359   -259.1 1.015e+04 4.655e-10
 52.61160   -258.6 1.019e+04 4.884e-10
 52.64732   -258.1 1.019e+04 4.909e-10
 52.66707   -258.7 1.015e+04 4.669e-10
 52.69063   -257.8 9.997e+03 4.255e-10
 52.73015   -256.7 9.797e+03 3.603e-10
 52.76967   -255.3 9.607e+03 3.000e-10
 52.80918   -253.8 9.447e+03 2.535e-10
 52.84870   -252.2 9.311e+03 2.194e-10
 52.87173   -250.4 9.193e+03 1.945e-10
 52.89149   -250.9 9.106e+03 1.779e-10
 52.92773   -248.9 9.020e+03 1.622e-10
 52.96725   -246.7 8.963e+03 1.520e-10
 53.00677   -244.6 8.934e+03 1.456e-10
 53.04628   -242.3 8.920e+03 1.415e-10
 53.08403   -240.1 8.914e+03 1.386e-10
 53.10379   -240.3 8.832e+03 1.179e-10
 53.12532   -238.1 8.829e+03 1.144e-10
 53.16483   -235.8 8.833e+03 1.130e-10
 53.18963   -233.5 8.834e+03 1.128e-10
 53.20939   -233.6 8.828e+03 1.133e-10
 53.24387   -231.3 8.839e+03 1.133e-10
 53.28338   -229.1 8.935e+03 1.168e-10
 53.32290   -226.9 9.044e+03 1.271e-10
 53.36242   -224.9 9.147e+03 1.431e-10
 53.40193   -223.1 9.272e+03 1.697e-10
 53.44145   -221.7 9.509e+03 2.216e-10
 53.48097   -220.7 1.003e+04 3.324e-10
 53.50752   -220.2 1.092e+04 5.696e-10
 53.52728   -219.6 1.082e+04 5.698e-10
 53.54050   -219.2 1.179e+04 9.610e-10
 53.56026   -219.5 1.175e+04 9.657e-10
 53.58954   -219.5 1.271e+04 1.532e-09
 53.60920   -219.5 1.346e+04 2.185e-09
 53.62896   -219.6 1.420e+04 3.117e-09
 53.64872   -220.0 1.496e+04 4.337e-09
 53.66628   -220.3 1.549e+04 5.464e-09
 53.67616   -219.7 1.511e+04 4.856e-09
 53.68824   -219.8 1.545e+04 5.506e-09
 53.70799   -220.1 1.559e+04 5.704e-09
 53.72775   -220.4 1.561e+04 5.716e-09
 53.74751   -220.9 1.557e+04 5.309e-09
 53.75866   -221.4 1.551e+04 4.614e-09
 53.76854   -221.4 1.525e+04 5.001e-09
 53.78703   -221.8 1.482e+04 3.974e-09
 53.80679   -222.4 1.461e+04 3.505e-09
 53.82522   -223.2 1.458e+04 3.417e-09
 53.83510   -222.7 1.451e+04 3.155e-09
 53.84630   -223.5 1.472e+04 3.183e-09
 53.86606   -224.0 1.540e+04 3.727e-09
 53.88582   -224.0 1.603e+04 4.765e-09
 53.90558   -223.8 1.654e+04 5.918e-09
 53.92534   -223.5 1.678e+04 6.693e-09
 53.94509   -223.2 1.681e+04 6.897e-09
 53.96485   -222.7 1.662e+04 6.887e-09
 53.97702   -222.0 1.583e+04 5.820e-09
 53.98646   -222.0 1.519e+04 4.633e-09
 53.99405   -221.7 1.511e+04 4.419e-09
 54.00437   -220.9 1.468e+04 3.750e-09
 54.02413   -220.0 1.408e+04 2.868e-09
 54.04389   -219.3 1.346e+04 2.141e-09
 54.06364   -218.7 1.293e+04 1.635e-09
 54.08340   -217.9 1.250e+04 1.304e-09
 54.10316   -217.1 1.217e+04 1.101e-09
 54.12292   -216.3 1.193e+04 9.876e-10
 54.14268   -215.3 1.173e+04 9.274e-10
 54.15300   -214.2 1.158e+04 8.948e-10
 54.16288   -213.9 1.162e+04 8.401e-10
 54.18219   -212.8 1.154e+04 8.276e-10
 54.19537   -211.8 1.149e+04 8.202e-10
 54.20525   -211.8 1.117e+04 6.532e-10
 54.22171   -210.8 1.109e+04 6.183e-10
 54.24147   -209.7 1.102e+04 5.708e-10
 54.26123   -208.7 1.098e+04 5.156e-10
 54.28099   -207.8 1.096e+04 4.641e-10
 54.30075   -207.1 1.096e+04 4.182e-10
 54.31195   -206.5 1.098e+04 3.807e-10
 54.32183   -206.2 1.112e+04 4.301e-10
 54.34026   -205.6 1.115e+04 3.947e-10
 54.36002   -205.1 1.118e+04 3.700e-10
 54.37978   -204.7 1.121e+04 3.502e-10
 54.39954   -204.4 1.121e+04 3.387e-10
 54.41373   -204.0 1.122e+04 3.316e-10
 54.43358   -204.2 1.071e+04 2.227e-10
 54.46121   -203.4 1.075e+04 2.217e-10
 54.48097   -202.7 1.097e+04 2.498e-10
 54.50840   -201.9 1.091e+04 2.501e-10
 54.54792   -200.9 1.073e+04 2.488e-10
 54.58744   -199.7 1.056e+04 2.323e-10
 54.62695   -198.4 1.037e+04 2.102e-10
 54.66647   -197.0 1.019e+04 1.917e-10
 54.70599   -195.4 1.007e+04 1.796e-10
 54.74550   -193.8 9.993e+03 1.734e-10
 54.77911   -192.1 9.971e+03 1.720e-10
 54.79887   -191.2 9.908e+03 1.677e-10
 54.82454   -189.5 9.929e+03 1.682e-10
 54.85063   -187.9 9.989e+03 1.755e-10
 54.87039   -187.8 9.872e+03 1.348e-10
 54.90357   -186.3 9.941e+03 1.535e-10
 54.94309   -185.0 1.003e+04 1.797e-10
 54.98261   -183.7 1.013e+04 2.152e-10
 55.02212   -182.3 1.023e+04 2.591e-10
 55.06164   -181.0 1.029e+04 3.055e-10
 55.09700   -179.7 1.026e+04 3.399e-10
 55.11676   -178.9 1.045e+04 4.302e-10
 55.14067   -177.7 1.042e+04 4.396e-10
 55.18019   -176.4 1.034e+04 4.400e-10
 55.21971   -174.9 1.015e+04 4.246e-10
 55.25922   -173.4 9.988e+03 3.992e-10
 55.28735   -171.9 9.843e+03 3.717e-10
 55.30711   -171.4 9.595e+03 2.684e-10
 55.33826   -169.8 9.462e+03 2.561e-10
 55.37777   -168.2 9.296e+03 2.351e-10
 55.41490   -166.4 9.114e+03 2.070e-10
 55.43466   -165.6 9.073e+03 1.955e-10
 55.45681   -163.6 8.902e+03 1.667e-10
 55.49632   -161.6 8.765e+03 1.422e-10
 55.53584   -159.5 8.689e+03 1.260e-10
 55.57536   -157.2 8.681e+03 1.197e-10
 55.61487   -154.9 8.683e+03 1.187e-10
 55.65439   -152.6 8.756e+03 1.232e-10
 55.69391   -150.4 8.866e+03 1.432e-10
 55.72406   -148.1 8.946e+03 1.699e-10
 55.74319   -147.5 8.835e+03 1.356e-10
 55.75256   -146.6 8.778e+03 1.128e-10
 55.77294   -144.3 8.828e+03 1.358e-10
 55.81246   -141.8 8.853e+03 1.599e-10
 55.85197   -139.2 8.861e+03 1.778e-10
 55.89149   -136.7 8.858e+03 1.835e-10
 55.93101   -134.0 8.849e+03 1.833e-10
 55.97052   -131.4 8.784e+03 1.681e-10
 56.01004   -128.8 8.738e+03 1.460e-10
 56.04956   -126.3 8.699e+03 1.235e-10
 56.07045   -123.9 8.625e+03 1.054e-10
 56.09021   -122.8 8.716e+03 1.158e-10
 56.12859   -120.4 8.601e+03 1.012e-10
 56.16077   -118.0 8.452e+03 9.047e-11
 56.18053   -116.8 8.492e+03 8.983e-11
 56.20763   -114.4 8.340e+03 7.396e-11
 56.24714   -111.9 8.196e+03 6.378e-11
 56.28666   -109.5 8.144e+03 5.948e-11
 56.32618   -107.2 8.160e+03 5.915e-11
 56.36569   -105.8 8.753e+03 6.945e-11
 56.38835   -104.8 9.474e+03 1.396e-10
 56.40811   -104.1 9.662e+03 1.948e-10
 56.44473   -102.7 1.012e+04 4.131e-10
 56.48424   -101.2 1.053e+04 6.726e-10
 56.52376    -99.9 1.075e+04 7.995e-10
 56.56328    -99.0 1.074e+04 7.994e-10
 56.59748    -98.0 1.041e+04 6.255e-10
 56.61724    -95.7 1.044e+04 6.516e-10
 56.64231    -94.7 1.019e+04 5.546e-10
 56.68183    -93.7 9.671e+03 3.786e-10
 56.70625    -92.5 9.122e+03 2.610e-10
 56.72600    -92.3 9.324e+03 3.053e-10
 56.76086    -90.9 8.964e+03 2.470e-10
 56.80038    -89.0 8.791e+03 2.234e-10
 56.83989    -87.1 8.699e+03 2.140e-10
 56.87941    -85.1 8.681e+03 2.120e-10
 56.91893    -83.1 8.703e+03 2.148e-10
 56.95844    -81.3 8.778e+03 2.287e-10
 56.99796    -79.4 8.840e+03 2.433e-10
 57.02414    -77.6 8.858e+03 2.493e-10
 57.04062    -77.2 9.123e+03 3.091e-10
 57.05395    -76.0 9.107e+03 3.000e-10
 57.07699    -74.3 9.115e+03 3.035e-10
 57.11651    -72.7 9.074e+03 2.945e-10
 57.15603    -71.3 8.987e+03 2.680e-10
 57.19555    -70.1 8.881e+03 2.386e-10
 57.23506    -69.1 8.796e+03 2.168e-10
 57.27458    -68.3 8.734e+03 2.039e-10
 57.31410    -67.5 8.672e+03 1.914e-10
 57.34204    -66.7 8.588e+03 1.749e-10
 57.36180    -65.6 8.894e+03 2.416e-10
 57.39313    -65.0 8.682e+03 1.940e-10
 57.43265    -64.4 8.568e+03 1.716e-10
 57.47091    -63.8 8.543e+03 1.686e-10
 57.49067    -63.5 8.549e+03 1.699e-10
 57.51168    -62.8 8.654e+03 1.954e-10
 57.55120    -61.6 8.909e+03 2.540e-10
 57.59071    -60.1 9.143e+03 3.070e-10
 57.63023    -58.7 9.321e+03 3.356e-10
 57.65993    -57.5 9.400e+03 3.455e-10
 57.67959    -57.2 9.555e+03 3.923e-10
 57.69895    -56.8 9.608e+03 4.066e-10
 57.70883    -57.1 9.709e+03 4.363e-10
 57.71895    -57.0 9.801e+03 4.786e-10
 57.73871    -56.6 9.941e+03 5.502e-10
 57.75846    -56.1 1.009e+04 6.282e-10
 57.77822    -55.5 1.023e+04 7.036e-10
 57.79798    -54.9 1.031e+04 7.540e-10
 57.81774    -54.2 1.033e+04 7.684e-10
 57.82857    -53.3 1.027e+04 7.630e-10
 57.83845    -53.1 1.054e+04 8.061e-10
 57.85726    -52.1 1.027e+04 7.033e-10
 57.87701    -51.0 1.003e+04 5.751e-10
 57.90675    -49.7 9.778e+03 4.345e-10
 57.92738    -48.6 9.608e+03 3.541e-10
 57.94714    -49.7 9.605e+03 3.387e-10
 57.97783    -48.0 9.220e+03 2.402e-10
 57.99759    -47.4 9.406e+03 2.641e-10
 58.02540    -45.2 9.079e+03 1.960e-10
 58.06491    -43.2 8.874e+03 1.536e-10
 58.10443    -41.2 8.727e+03 1.310e-10
 58.14395    -39.2 8.668e+03 1.255e-10
 58.18346    -38.1 8.788e+03 1.303e-10
 58.22298    -38.4 9.267e+03 1.783e-10
 58.26250    -39.4 1.023e+04 4.367e-10
 58.29573    -39.3 1.117e+04 1.012e-09
 58.31549    -38.7 1.127e+04 1.020e-09
 58.34153    -38.4 1.211e+04 1.760e-09
 58.36399    -38.5 1.227e+04 1.837e-09
 58.38375    -39.9 1.190e+04 1.249e-09
 58.41059    -41.7 1.152e+04 8.672e-10
 58.43025    -42.5 1.109e+04 7.284e-10
 58.45001    -45.0 1.027e+04 5.588e-10
 58.46436    -46.3 1.012e+04 5.333e-10
 58.47424    -45.9 9.981e+03 4.931e-10
 58.48952    -47.1 9.943e+03 4.841e-10
 58.50928    -48.1 9.989e+03 5.065e-10
 58.52904    -49.0 1.002e+04 5.456e-10
 58.54880    -49.8 1.001e+04 5.685e-10
 58.56856    -50.5 1.000e+04 5.719e-10
 58.58225    -51.1 9.930e+03 5.636e-10
 58.59213    -51.2 9.903e+03 5.576e-10
 58.61353    -51.4 9.719e+03 5.281e-10
 58.63328    -51.8 9.572e+03 4.880e-10
 58.65757    -52.3 9.179e+03 3.861e-10
 58.69718    -53.0 8.643e+03 2.431e-10
 58.73670    -55.8 8.613e+03 2.000e-10
 58.77622    -62.9 1.024e+04 2.137e-10
 58.80080    -71.4 1.233e+04 7.343e-10
 58.81059    -73.1 1.286e+04 9.380e-10
 58.82542    -75.2 1.303e+04 1.815e-09
 58.84518    -75.9 1.324e+04 2.709e-09
 58.86493    -76.0 1.336e+04 2.911e-09
 58.88469    -76.1 1.336e+04 2.445e-09
 58.90445    -77.4 1.283e+04 1.096e-09
 58.92421    -84.5 1.098e+04 3.608e-10
 58.94120    -91.1 8.962e+03 2.020e-10
 58.95108    -91.9 8.824e+03 2.033e-10
 58.96373    -93.6 8.622e+03 1.906e-10
 58.98348    -94.8 8.922e+03 2.129e-10
 59.00324    -96.1 9.528e+03 3.041e-10
 59.01896    -97.3 1.008e+04 4.471e-10
 59.02884    -99.0 1.056e+04 6.208e-10
 59.04276    -99.7 1.113e+04 9.035e-10
 59.06252   -100.0 1.160e+04 1.221e-09
 59.08228   -100.2 1.195e+04 1.555e-09
 59.10015   -100.3 1.210e+04 1.658e-09
 59.11003   -101.0 1.224e+04 1.823e-09
 59.12179   -101.0 1.218e+04 1.795e-09
 59.14155   -101.1 1.190e+04 1.510e-09
 59.16131   -101.3 1.148e+04 1.128e-09
 59.18107   -101.7 1.098e+04 7.970e-10
 59.20083   -102.2 1.045e+04 5.643e-10
 59.22059   -102.5 9.991e+03 4.157e-10
 59.23732   -102.6 9.641e+03 3.308e-10
 59.24720   -104.4 9.455e+03 2.995e-10
 59.25910   -103.9 9.405e+03 2.803e-10
 59.26908   -105.1 9.291e+03 2.703e-10
 59.28994   -103.2 8.910e+03 2.131e-10
 59.32945   -100.7 8.540e+03 1.649e-10
 59.36897    -98.1 8.339e+03 1.367e-10
 59.40849    -95.5 8.339e+03 1.249e-10
 59.44800    -92.9 8.366e+03 1.230e-10
 59.48752    -90.2 8.488e+03 1.271e-10
 59.52704    -87.7 8.725e+03 1.419e-10
 59.56655    -85.2 9.079e+03 1.783e-10
 59.58707    -82.8 9.448e+03 2.450e-10
 59.60683    -81.7 8.765e+03 1.220e-10
 59.64559    -79.4 9.265e+03 2.135e-10
 59.67423    -76.9 9.991e+03 3.892e-10
 59.69399    -78.1 1.040e+04 5.127e-10
 59.72462    -75.4 1.080e+04 6.791e-10
 59.76414    -72.7 1.124e+04 8.855e-10
 59.79368    -70.6 1.165e+04 1.087e-09
 59.81334    -70.1 1.192e+04 1.231e-09
 59.83310    -69.5 1.254e+04 1.511e-09
 59.85285    -69.2 1.339e+04 1.927e-09
 59.87261    -68.7 1.435e+04 2.548e-09
 59.89237    -68.2 1.526e+04 3.371e-09
 59.90477    -67.0 1.415e+04 2.912e-09
 59.91465    -66.9 1.652e+04 5.391e-09
 59.93189    -65.8 1.706e+04 6.474e-09
 59.95165    -64.6 1.737e+04 7.342e-09
 59.97140    -63.5 1.752e+04 7.953e-09
 59.99116    -62.6 1.758e+04 8.337e-09
 60.01092    -61.9 1.764e+04 8.673e-09
 60.03068    -61.5 1.772e+04 9.106e-09
 60.05044    -61.2 1.783e+04 9.850e-09
 60.06372    -60.9 1.813e+04 1.106e-08
 60.07360    -61.3 1.785e+04 1.187e-08
 60.08995    -61.3 1.813e+04 1.390e-08
 60.10971    -60.9 1.831e+04 1.618e-08
 60.12062    -60.5 1.850e+04 1.817e-08
 60.13050    -60.8 2.006e+04 1.973e-08
 60.14923    -60.6 2.018e+04 2.166e-08
 60.16899    -60.1 2.009e+04 2.268e-08
 60.18875    -59.7 2.002e+04 2.298e-08
 60.20851    -59.2 1.986e+04 2.275e-08
 60.22267    -58.6 1.991e+04 2.273e-08
 60.22756    -59.1 1.942e+04 2.123e-08
 60.22970    -58.9 1.948e+04 2.090e-08
 60.23464    -59.6 2.026e+04 2.805e-08
 60.24298    -59.6 2.025e+04 2.822e-08
 60.25286    -59.5 2.023e+04 2.743e-08
 60.26274    -59.4 2.008e+04 2.653e-08
 60.27262    -59.2 2.009e+04 2.625e-08
 60.28250    -58.8 2.022e+04 2.698e-08
 60.29238    -58.6 2.048e+04 2.826e-08
 60.30204    -58.4 2.076e+04 3.012e-08
 60.30698    -59.2 2.080e+04 2.768e-08
 60.31214    -59.2 2.087e+04 2.881e-08
 60.32202    -59.1 2.089e+04 3.059e-08
 60.33190    -58.8 2.107e+04 3.405e-08
 60.33888    -58.5 2.131e+04 3.967e-08
 60.34382    -59.5 2.166e+04 5.914e-08
 60.35166    -59.1 2.189e+04 6.801e-08
 60.36153    -58.8 2.202e+04 7.480e-08
 60.37141    -58.8 2.197e+04 7.716e-08
 60.38129    -58.6 2.174e+04 7.697e-08
 60.38646    -58.2 2.172e+04 7.657e-08
 60.39140    -58.1 2.206e+04 6.541e-08
 60.40105    -58.1 2.209e+04 6.187e-08
 60.41093    -57.9 2.196e+04 5.620e-08
 60.42081    -57.6 2.184e+04 5.087e-08
 60.43069    -57.5 2.182e+04 4.830e-08
 60.44057    -57.5 2.182e+04 4.793e-08
 60.44806    -57.7 2.183e+04 4.805e-08
 60.45300    -58.8 2.164e+04 4.798e-08
 60.46033    -59.0 2.121e+04 4.746e-08
 60.46593    -58.9 2.091e+04 4.701e-08
 60.47087    -59.0 2.097e+04 3.845e-08
 60.48009    -58.9 2.062e+04 3.775e-08
 60.48996    -58.5 2.045e+04 3.679e-08
 60.49984    -58.5 2.020e+04 3.419e-08
 60.50972    -58.4 1.975e+04 2.958e-08
 60.51960    -58.0 1.946e+04 2.539e-08
 60.52948    -57.7 1.939e+04 2.241e-08
 60.54052    -57.3 1.919e+04 1.972e-08
 60.55044    -56.7 1.817e+04 1.422e-08
 60.55734    -56.2 1.804e+04 1.164e-08
 60.56722    -56.9 1.816e+04 1.225e-08
 60.58391    -56.5 1.807e+04 1.056e-08
 60.60367    -56.4 1.805e+04 9.401e-09
 60.62343    -56.3 1.783e+04 8.468e-09
 60.64319    -55.7 1.764e+04 7.786e-09
 60.66295    -55.2 1.753e+04 7.267e-09
 60.68271    -54.5 1.729e+04 6.640e-09
 60.69951    -53.4 1.713e+04 6.022e-09
 60.70939    -53.0 1.880e+04 9.441e-09
 60.72222    -51.8 1.823e+04 8.166e-09
 60.74198    -50.7 1.751e+04 6.716e-09
 60.76174    -49.1 1.697e+04 5.683e-09
 60.77569    -47.4 1.684e+04 5.140e-09
 60.78557    -47.5 1.561e+04 3.584e-09
 60.80126    -46.1 1.557e+04 3.283e-09
 60.82102    -44.6 1.538e+04 2.902e-09
 60.84077    -42.8 1.527e+04 2.590e-09
 60.85846    -41.1 1.534e+04 2.481e-09
 60.86834    -41.3 1.680e+04 3.918e-09
 60.88029    -40.1 1.734e+04 4.229e-09
 60.90005    -39.1 1.781e+04 4.812e-09
 60.91981    -37.9 1.810e+04 5.454e-09
 60.93957    -36.5 1.847e+04 6.385e-09
 60.95932    -35.2 1.901e+04 7.896e-09
 60.97908    -33.8 1.949e+04 9.922e-09
 60.99405    -32.4 1.990e+04 1.189e-08
 61.00393    -31.8 2.132e+04 9.143e-09
 61.01741    -30.8 2.173e+04 1.304e-08
 61.02724    -30.7 2.178e+04 2.572e-08
 61.03332    -29.8 2.123e+04 3.028e-08
 61.04320    -29.1 2.054e+04 3.394e-08
 61.05308    -28.0 1.982e+04 4.110e-08
 61.06296    -27.0 1.942e+04 4.744e-08
 61.07284    -26.1 1.955e+04 5.951e-08
 61.08272    -24.9 1.985e+04 7.477e-08
 61.09260    -23.6 2.023e+04 8.396e-08
 61.10172    -23.1 1.992e+04 7.379e-08
 61.10666    -22.8 2.071e+04 1.021e-07
 61.10807    -22.9 2.066e+04 8.838e-08
 61.11301    -23.8 2.106e+04 2.728e-07
 61.12223    -23.9 2.080e+04 2.491e-07
 61.13211    -22.9 2.071e+04 2.334e-07
 61.14199    -22.3 2.076e+04 2.138e-07
 61.15187    -21.4 2.085e+04 1.840e-07
 61.16175    -21.1 2.119e+04 1.454e-07
 61.17163    -21.3 2.109e+04 1.160e-07
 61.18120    -21.1 2.080e+04 1.046e-07
 61.18614    -21.2 2.061e+04 9.250e-08
 61.19139    -20.2 2.065e+04 9.489e-08
 61.20127    -19.2 2.073e+04 8.824e-08
 61.21115    -18.3 2.206e+04 4.546e-08
 61.21725    -17.7 2.243e+04 2.944e-08
 61.22219    -17.8 2.074e+04 1.180e-07
 61.23090    -18.1 2.093e+04 7.218e-08
 61.24078    -18.5 2.053e+04 5.500e-08
 61.25066    -18.6 2.031e+04 4.790e-08
 61.26054    -17.7 2.009e+04 4.569e-08
 61.26561    -16.4 2.043e+04 4.361e-08
 61.27055    -16.2 2.089e+04 2.439e-08
 61.28030    -15.0 2.144e+04 2.180e-08
 61.29018    -13.9 2.241e+04 1.821e-08
 61.30006    -12.8 2.368e+04 1.315e-08
 61.30994    -12.3 2.606e+04 7.731e-09
 61.31982    -12.1 2.796e+04 4.817e-09
 61.32643    -11.9 2.847e+04 3.406e-09
 61.33136    -11.4 2.638e+04 1.077e-08
 61.33958    -11.2 2.710e+04 8.847e-09
 61.34514    -11.0 2.882e+04 3.780e-09
 61.35506    -13.8 2.334e+04 1.153e-09
 61.37425    -14.5 1.641e+04 1.103e-09
 61.39401    -14.4 1.281e+04 1.160e-09
 61.41377    -13.0 1.220e+04 1.304e-09
 61.43076    -11.6 1.218e+04 1.381e-09
 61.44064    -11.1 1.322e+04 1.564e-09
 61.45328     -9.7 1.293e+04 1.564e-09
 61.47304     -8.0 1.301e+04 1.508e-09
 61.49280     -6.6 1.311e+04 1.436e-09
 61.50413     -5.4 1.312e+04 1.340e-09
 61.51401     -5.2 1.287e+04 1.406e-09
 61.53232     -4.3 1.294e+04 1.342e-09
 61.55208     -3.3 1.301e+04 1.278e-09
 61.57183     -2.7 1.298e+04 1.261e-09
 61.59159     -2.0 1.297e+04 1.280e-09
 61.61135     -2.3 1.349e+04 1.450e-09
 61.63111     -3.7 1.508e+04 1.837e-09
 61.64912     -5.6 1.710e+04 2.431e-09
 61.65900     -8.2 2.613e+04 5.585e-09
 61.66303    -11.2 2.550e+04 5.289e-09
 61.66792    -11.7 2.169e+04 9.272e-09
 61.67547    -14.3 2.177e+04 1.131e-08
 61.68535    -17.1 2.194e+04 1.424e-08
 61.69523    -18.9 2.151e+04 1.603e-08
 61.70511    -20.0 2.117e+04 1.715e-08
 61.71498    -20.6 2.059e+04 1.807e-08
 61.72486    -20.2 1.978e+04 1.955e-08
 61.73474    -19.6 1.949e+04 1.803e-08
 61.74961    -19.3 1.996e+04 1.313e-08
 61.76942    -18.1 1.948e+04 8.760e-09
 61.78918    -17.9 1.789e+04 5.219e-09
 61.80893    -18.6 1.495e+04 2.743e-09
 61.82203    -19.1 1.272e+04 1.801e-09
 61.83191    -20.0 1.139e+04 1.150e-09
 61.84845    -18.8 1.124e+04 1.041e-09
 61.86747    -18.0 1.107e+04 9.903e-10
 61.87735    -18.3 1.117e+04 1.016e-09
 61.89795    -17.0 1.096e+04 9.257e-10
 61.93756    -14.3 1.074e+04 9.053e-10
 61.97708    -11.1 1.030e+04 7.912e-10
 62.01659     -7.3 9.781e+03 5.900e-10
 62.05611     -3.5 9.109e+03 3.558e-10
 62.09563     -0.5 8.574e+03 2.054e-10
 62.13024      1.7 8.258e+03 1.389e-10
 62.15000      1.6 8.160e+03 1.366e-10
 62.17466      4.2 7.917e+03 1.134e-10
 62.21418      7.5 7.868e+03 1.120e-10
 62.25369     10.7 7.896e+03 1.155e-10
 62.29321     13.8 7.933e+03 1.214e-10
 62.31426     16.8 8.015e+03 1.306e-10
 62.33402     16.9 8.020e+03 1.190e-10
 62.37224     19.5 8.194e+03 1.413e-10
 62.41176     21.9 8.492e+03 1.918e-10
 62.44814     24.3 8.930e+03 2.992e-10
 62.46790     23.4 8.963e+03 2.912e-10
 62.49079     25.7 9.525e+03 4.217e-10
 62.53031     27.9 9.991e+03 5.393e-10
 62.56983     30.0 1.029e+04 5.964e-10
 62.59937     31.3 1.050e+04 6.699e-10
 62.61677     32.2 1.059e+04 6.904e-10
 62.62665     31.0 1.028e+04 5.691e-10
 62.63879     31.7 1.025e+04 5.562e-10
 62.65855     32.4 1.020e+04 5.421e-10
 62.67830     33.2 1.014e+04 5.268e-10
 62.69806     34.1 1.011e+04 5.159e-10
 62.71782     35.1 1.009e+04 4.813e-10
 62.73758     35.8 1.007e+04 4.621e-10
 62.75078     37.1 1.007e+04 4.179e-10
 62.76066     37.2 1.009e+04 4.068e-10
 62.77572     37.7 1.008e+04 3.855e-10
 62.78569     36.5 9.792e+03 3.040e-10
 62.80693     38.5 9.754e+03 2.703e-10
 62.84645     40.4 9.657e+03 2.449e-10
 62.88596     42.2 9.502e+03 2.262e-10
 62.92548     44.0 9.365e+03 2.163e-10
 62.96500     45.9 9.259e+03 2.143e-10
 63.00451     47.7 9.287e+03 2.195e-10
 63.04403     49.4 9.425e+03 2.399e-10
 63.08355     50.9 9.722e+03 2.870e-10
 63.10369     51.6 1.000e+04 3.566e-10
 63.12345     50.1 1.000e+04 3.717e-10
 63.15260     50.5 1.015e+04 4.382e-10
 63.17226     50.8 1.034e+04 5.361e-10
 63.18749     51.3 1.056e+04 6.548e-10
 63.19737     51.4 1.048e+04 6.238e-10
 63.21178     52.1 1.063e+04 6.677e-10
 63.23154     52.5 1.068e+04 6.652e-10
 63.25130     52.7 1.069e+04 6.507e-10
 63.26244     52.8 1.066e+04 6.216e-10
 63.27232     52.5 1.047e+04 5.717e-10
 63.29081     52.7 1.040e+04 5.524e-10
 63.31057     52.9 1.036e+04 5.427e-10
 63.33033     53.2 1.034e+04 5.390e-10
 63.35009     53.5 1.034e+04 5.442e-10
 63.36985     53.7 1.036e+04 5.609e-10
 63.38961     54.0 1.041e+04 5.979e-10
 63.40585     54.4 1.047e+04 6.480e-10
 63.41572     54.2 1.063e+04 7.113e-10
 63.42139     54.7 1.075e+04 7.948e-10
 63.43127     54.9 1.091e+04 9.069e-10
 63.44888     55.5 1.104e+04 9.769e-10
 63.46864     56.1 1.104e+04 9.754e-10
 63.48840     56.8 1.100e+04 9.432e-10
 63.50816     57.5 1.086e+04 8.608e-10
 63.52792     58.1 1.069e+04 7.595e-10
 63.54767     58.8 1.048e+04 6.496e-10
 63.56743     59.2 1.029e+04 5.755e-10
 63.59717     60.3 9.985e+03 4.645e-10
 63.62440     62.2 9.677e+03 3.755e-10
 63.64416     61.9 9.845e+03 4.375e-10
 63.67630     63.7 9.754e+03 3.962e-10
 63.71582     65.5 9.774e+03 3.807e-10
 63.73948     67.2 9.854e+03 3.901e-10
 63.75924     66.2 9.754e+03 3.823e-10
 63.79485     67.9 9.923e+03 4.311e-10
 63.83437     69.7 1.008e+04 4.867e-10
 63.87388     71.5 1.020e+04 5.388e-10
 63.91340     73.3 1.026e+04 5.690e-10
 63.95292     74.9 1.025e+04 5.518e-10
 63.99243     76.7 1.027e+04 5.232e-10
 64.02197     77.2 1.029e+04 5.158e-10
 64.04163     77.4 1.034e+04 5.185e-10
 64.05718     77.7 1.040e+04 5.198e-10
 64.06658     76.8 1.040e+04 5.188e-10
 64.07079     76.0 1.047e+04 5.033e-10
 64.08115     76.1 1.058e+04 5.292e-10
 64.10091     76.2 1.070e+04 5.729e-10
 64.12067     76.2 1.083e+04 6.354e-10
 64.14043     76.2 1.096e+04 7.128e-10
 64.16018     76.2 1.107e+04 7.945e-10
 64.17994     76.1 1.114e+04 8.640e-10
 64.19970     76.0 1.116e+04 9.213e-10
 64.21613     75.9 1.120e+04 9.607e-10
 64.22601     75.3 1.109e+04 9.455e-10
 64.23922     75.3 1.106e+04 9.318e-10
 64.25898     75.2 1.100e+04 9.010e-10
 64.27873     75.2 1.092e+04 8.517e-10
 64.28915     75.2 1.080e+04 7.798e-10
 64.29903     74.7 1.050e+04 6.219e-10
 64.31825     74.5 1.034e+04 5.352e-10
 64.33801     74.1 1.013e+04 4.302e-10
 64.35777     73.6 9.916e+03 3.647e-10
 64.37508     73.5 9.690e+03 3.145e-10
 64.39493     73.1 9.648e+03 3.148e-10
 64.42712     73.3 9.431e+03 2.826e-10
 64.46663     74.2 9.472e+03 2.926e-10
 64.49782     74.7 9.678e+03 3.397e-10
 64.51758     74.4 9.537e+03 2.930e-10
 64.54567     74.6 9.803e+03 3.653e-10
 64.57521     74.6 9.958e+03 4.684e-10
 64.59487     75.1 1.016e+04 5.712e-10
 64.61463     75.7 1.040e+04 6.815e-10
 64.63439     76.3 1.065e+04 7.941e-10
 64.65414     77.1 1.089e+04 9.240e-10
 64.67390     77.5 1.137e+04 1.117e-09
 64.69297     76.0 1.258e+04 1.492e-09
 64.70285     71.0 1.565e+04 2.036e-09
 64.71342     65.3 1.918e+04 5.704e-09
 64.72586     61.8 2.010e+04 1.171e-08
 64.73574     60.2 1.917e+04 1.087e-08
 64.74795     59.8 1.964e+04 1.330e-08
 64.75778     58.9 1.982e+04 1.533e-08
 64.76766     57.9 2.006e+04 1.652e-08
 64.77729     56.8 2.010e+04 1.604e-08
 64.78223     55.9 1.994e+04 1.411e-08
 64.78742     53.6 2.019e+04 9.443e-09
 64.79729     50.0 1.976e+04 5.477e-09
 64.80717     43.8 1.814e+04 2.987e-09
 64.81705     41.0 1.669e+04 2.378e-09
 64.83192     36.8 1.488e+04 1.941e-09
 64.85173     30.8 1.177e+04 1.376e-09
 64.86180     28.8 1.104e+04 1.181e-09
 64.87168     28.8 1.095e+04 1.124e-09
 64.89124     28.7 1.086e+04 1.045e-09
 64.91100     28.5 1.056e+04 8.751e-10
 64.93076     28.0 1.013e+04 6.302e-10
 64.94422     26.8 9.727e+03 4.530e-10
 64.95410     27.0 9.854e+03 4.940e-10
 64.98025     26.2 9.276e+03 3.440e-10
 65.01107     25.5 8.944e+03 2.889e-10
 65.03082     25.8 9.422e+03 3.741e-10
 65.05939     25.8 9.534e+03 4.138e-10
 65.09890     26.3 9.650e+03 4.756e-10
 65.13842     27.3 9.629e+03 4.827e-10
 65.17794     28.8 9.456e+03 4.448e-10
 65.21745     30.6 9.083e+03 3.497e-10
 65.25697     32.6 8.629e+03 2.497e-10
 65.29649     34.6 8.210e+03 1.733e-10
 65.32896     36.7 7.877e+03 1.249e-10
 65.34872     36.5 7.924e+03 1.297e-10
 65.37125     38.5 7.686e+03 1.003e-10
 65.39100     38.8 7.685e+03 9.910e-11
 65.41504     41.0 7.599e+03 8.580e-11
 65.45455     43.5 7.596e+03 8.448e-11
 65.49407     46.1 7.602e+03 8.462e-11
 65.53359     48.7 7.636e+03 8.581e-11
 65.57310     51.3 7.701e+03 8.873e-11
 65.61262     53.8 7.779e+03 9.248e-11
 65.64686     56.4 7.856e+03 9.625e-11
 65.66662     56.1 7.949e+03 1.007e-10
 65.69165     58.7 8.060e+03 1.072e-10
 65.73117     61.3 8.188e+03 1.152e-10
 65.77069     63.7 8.368e+03 1.287e-10
 65.80796     66.0 8.564e+03 1.538e-10
 65.82772     66.3 8.524e+03 1.459e-10
 65.84972     68.5 8.925e+03 2.089e-10
 65.88924     71.4 9.891e+03 3.652e-10
 65.91878     72.5 1.103e+04 6.454e-10
 65.93844     72.8 1.132e+04 7.771e-10
 65.95820     73.0 1.179e+04 9.601e-10
 65.97444     72.5 1.281e+04 1.415e-09
 65.98432     71.0 1.329e+04 1.832e-09
 65.99771     70.0 1.448e+04 3.129e-09
 66.01747     69.4 1.529e+04 4.669e-09
 66.03600     68.9 1.567e+04 5.370e-09
 66.04588     69.5 1.549e+04 5.154e-09
 66.05699     68.7 1.547e+04 5.034e-09
 66.07675     67.8 1.524e+04 4.318e-09
 66.09651     66.5 1.464e+04 3.068e-09
 66.11626     64.7 1.369e+04 1.913e-09
 66.13339     62.5 1.253e+04 1.119e-09
 66.14327     61.1 1.210e+04 9.404e-10
 66.15578     58.8 1.133e+04 6.389e-10
 66.17554     56.7 1.131e+04 6.012e-10
 66.19530     54.4 1.158e+04 6.459e-10
 66.21506     52.1 1.215e+04 8.382e-10
 66.23482     50.0 1.267e+04 1.261e-09
 66.25435     48.3 1.318e+04 1.948e-09
 66.26423     46.7 1.339e+04 2.318e-09
 66.27433     45.9 1.378e+04 3.256e-09
 66.29234     45.6 1.410e+04 3.912e-09
 66.30221     44.9 1.352e+04 3.036e-09
 66.31385     44.2 1.351e+04 2.925e-09
 66.33361     43.5 1.332e+04 2.592e-09
 66.35337     42.9 1.287e+04 2.044e-09
 66.37312     41.8 1.221e+04 1.461e-09
 66.39288     39.7 1.169e+04 1.126e-09
 66.41264     37.3 1.174e+04 1.129e-09
 66.43240     33.9 1.233e+04 1.363e-09
 66.45128     30.3 1.395e+04 2.420e-09
 66.46116     30.6 1.327e+04 1.822e-09
 66.47192     28.1 1.475e+04 3.556e-09
 66.48259     27.3 1.545e+04 5.226e-09
 66.48748     27.0 1.572e+04 5.307e-09
 66.49652     26.4 1.627e+04 6.446e-09
 66.50640     26.2 1.662e+04 7.399e-09
 66.51627     25.9 1.668e+04 7.504e-09
 66.52615     25.6 1.650e+04 7.076e-09
 66.53560     24.9 1.613e+04 6.288e-09
 66.54054     25.0 1.583e+04 5.823e-09
 66.55090     24.1 1.533e+04 4.836e-09
 66.57071     22.6 1.421e+04 3.102e-09
 66.59047     20.0 1.286e+04 1.806e-09
 66.61022     16.9 1.150e+04 1.136e-09
 66.62998     15.2 1.079e+04 8.732e-10
 66.64974     14.9 1.083e+04 8.894e-10
 66.66950     14.5 1.102e+04 9.641e-10
 66.68926     14.2 1.126e+04 1.107e-09
 66.70095     14.0 1.160e+04 1.328e-09
 66.71083     13.0 1.186e+04 1.416e-09
 66.72877     12.6 1.246e+04 1.812e-09
 66.74853     12.1 1.310e+04 2.357e-09
 66.76829     11.6 1.360e+04 3.046e-09
 66.77906     11.5 1.404e+04 3.772e-09
 66.78894     12.3 1.367e+04 3.165e-09
 66.80781     11.9 1.412e+04 3.891e-09
 66.82757     11.5 1.465e+04 4.896e-09
 66.84733     10.9 1.514e+04 5.681e-09
 66.86708     10.5 1.537e+04 6.094e-09
 66.88684     10.5 1.523e+04 5.581e-09
 66.90660     10.8 1.470e+04 4.226e-09
 66.91930     10.7 1.384e+04 2.653e-09
 66.92918      9.7 1.295e+04 1.682e-09
 66.93801      8.3 1.188e+04 1.028e-09
 66.94789     10.0 1.247e+04 1.275e-09
 66.96588      7.7 1.135e+04 7.413e-10
 66.98563      5.7 1.043e+04 5.464e-10
 67.00539      5.6 1.020e+04 5.310e-10
 67.02515      5.9 1.021e+04 5.294e-10
 67.04491      5.9 1.025e+04 5.271e-10
 67.07464      6.5 1.001e+04 4.343e-10
 67.11426      7.6 9.638e+03 3.251e-10
 67.13785      8.2 9.232e+03 2.309e-10
 67.15761      9.0 9.252e+03 2.407e-10
 67.19329      9.2 8.940e+03 1.844e-10
 67.23281      9.4 8.752e+03 1.618e-10
 67.25610      9.9 8.633e+03 1.501e-10
 67.27586      9.6 8.666e+03 1.563e-10
 67.31184     10.2 8.634e+03 1.498e-10
 67.35136     11.0 8.635e+03 1.431e-10
 67.39088     11.6 8.569e+03 1.301e-10
 67.43039     12.1 8.465e+03 1.214e-10
 67.46991     12.8 8.466e+03 1.255e-10
 67.50943     13.6 8.542e+03 1.442e-10
 67.54894     14.8 8.657e+03 1.780e-10
 67.57400     16.2 8.807e+03 2.153e-10
 67.57986     15.9 8.809e+03 2.174e-10
 67.59432     16.1 8.858e+03 2.239e-10
 67.62798     17.6 8.995e+03 2.544e-10
 67.66749     19.0 9.218e+03 3.022e-10
 67.70701     20.4 9.485e+03 3.705e-10
 67.74653     21.3 9.687e+03 4.419e-10
 67.77607     22.1 9.718e+03 4.580e-10
 67.79273     22.3 9.756e+03 4.655e-10
 67.80261     22.4 9.772e+03 4.695e-10
 67.81549     23.3 9.754e+03 4.568e-10
 67.83525     23.4 9.746e+03 4.494e-10
 67.86498     24.3 9.670e+03 4.086e-10
 67.89189     25.5 9.260e+03 2.918e-10
 67.91165     26.1 8.935e+03 2.366e-10
 67.94411     27.6 8.570e+03 1.489e-10
 67.98363     28.8 8.299e+03 9.970e-11
 68.01128     30.2 8.234e+03 9.339e-11
 68.03104     30.6 8.274e+03 9.653e-11
 68.06266     32.3 8.286e+03 1.001e-10
 68.10218     33.7 8.405e+03 1.238e-10
 68.14170     35.1 8.833e+03 1.951e-10
 68.18121     36.2 9.329e+03 3.140e-10
 68.20979     36.9 9.612e+03 4.311e-10
 68.22955     37.5 9.465e+03 3.928e-10
 68.26025     37.9 9.547e+03 4.276e-10
 68.29976     38.3 9.466e+03 4.090e-10
 68.33928     38.8 9.259e+03 3.603e-10
 68.37880     39.4 9.118e+03 3.404e-10
 68.41831     40.1 9.136e+03 3.512e-10
 68.44799     40.8 9.209e+03 3.889e-10
 68.46775     41.3 9.108e+03 3.526e-10
 68.49735     42.3 9.154e+03 3.836e-10
 68.52768     43.4 9.132e+03 3.920e-10
 68.54744     43.4 9.154e+03 3.996e-10
 68.57638     44.6 9.079e+03 3.888e-10
 68.61590     45.9 8.946e+03 3.620e-10
 68.65541     47.3 8.793e+03 3.302e-10
 68.69493     48.8 8.685e+03 3.121e-10
 68.73445     50.5 8.685e+03 3.128e-10
 68.77396     52.2 8.748e+03 3.260e-10
 68.81348     53.9 8.920e+03 3.674e-10
 68.84558     54.9 9.058e+03 4.163e-10
 68.86534     55.1 9.066e+03 4.167e-10
 68.88254     56.2 9.288e+03 5.011e-10
 68.89439     57.1 9.605e+03 6.272e-10
 68.90427     57.5 9.441e+03 5.562e-10
 68.92196     58.4 9.806e+03 6.959e-10
 68.94172     59.3 1.022e+04 8.528e-10
 68.96147     59.5 1.066e+04 1.037e-09
 68.98123     59.3 1.133e+04 1.340e-09
 69.00099     58.3 1.254e+04 1.999e-09
 69.01421     56.7 1.413e+04 3.411e-09
 69.02409     56.9 1.413e+04 3.441e-09
 69.04051     55.9 1.578e+04 6.240e-09
 69.06027     55.8 1.719e+04 1.052e-08
 69.08002     55.2 1.788e+04 1.279e-08
 69.09978     54.0 1.764e+04 1.191e-08
 69.11274     54.1 1.668e+04 8.881e-09
 69.12262     54.6 1.670e+04 9.034e-09
 69.13930     54.7 1.548e+04 5.890e-09
 69.15906     54.3 1.402e+04 3.133e-09
 69.17316     51.9 1.234e+04 1.524e-09
 69.18304     52.9 1.265e+04 1.637e-09
 69.19857     49.2 1.111e+04 9.177e-10
 69.21833     46.2 1.030e+04 8.034e-10
 69.23809     45.2 1.020e+04 8.014e-10
 69.25785     45.2 1.019e+04 8.391e-10
 69.27761     45.3 1.026e+04 9.136e-10
 69.29737     45.4 1.032e+04 9.582e-10
 69.31712     45.4 1.036e+04 9.659e-10
 69.33110     45.2 1.039e+04 9.676e-10
 69.33620     46.3 1.043e+04 9.877e-10
 69.34199     46.5 1.058e+04 1.035e-09
 69.35664     46.0 1.062e+04 1.039e-09
 69.37640     45.4 1.067e+04 1.053e-09
 69.39616     44.9 1.066e+04 1.052e-09
 69.41592     44.5 1.060e+04 1.031e-09
 69.43567     44.4 1.041e+04 9.496e-10
 69.45543     44.5 1.018e+04 8.366e-10
 69.47519     44.6 9.936e+03 7.063e-10
 69.49106     44.7 9.763e+03 6.165e-10
 69.50094     44.9 9.741e+03 6.016e-10
 69.51471     45.0 9.522e+03 5.071e-10
 69.53447     45.0 9.333e+03 4.352e-10
 69.56420     45.8 9.179e+03 3.851e-10
 69.60382     47.3 8.958e+03 3.327e-10
 69.64333     49.2 8.915e+03 3.172e-10
 69.68285     51.3 8.931e+03 3.082e-10
 69.72237     53.2 8.945e+03 2.861e-10
 69.75813     55.0 8.974e+03 2.651e-10
 69.77789     56.1 8.954e+03 2.710e-10
 69.79927     58.0 8.995e+03 2.677e-10
 69.81903     59.6 9.276e+03 3.294e-10
 69.84092     61.7 9.474e+03 3.385e-10
 69.87046     61.9 9.410e+03 3.200e-10
 69.89012     62.3 9.485e+03 3.342e-10
 69.90988     62.7 9.646e+03 3.796e-10
 69.92963     62.8 9.930e+03 4.661e-10
 69.94939     62.7 1.042e+04 6.217e-10
 69.96790     62.0 1.113e+04 9.304e-10
 69.97778     62.6 1.116e+04 8.989e-10
 69.98617     61.6 1.193e+04 1.441e-09
 69.99605     62.7 1.156e+04 1.185e-09
 70.00867     62.1 1.219e+04 1.778e-09
 70.02843     61.9 1.268e+04 2.307e-09
 70.04819     61.6 1.281e+04 2.357e-09
 70.06794     61.1 1.275e+04 2.214e-09
 70.08770     60.6 1.243e+04 1.775e-09
 70.10746     59.9 1.194e+04 1.246e-09
 70.12685     58.7 1.140e+04 8.110e-10
 70.13673     58.3 1.162e+04 8.303e-10
 70.15695     56.5 1.080e+04 4.789e-10
 70.19484     56.0 9.903e+03 3.009e-10
 70.21460     56.6 1.026e+04 3.797e-10
 70.23609     56.5 9.989e+03 3.167e-10
 70.27560     57.1 1.007e+04 3.288e-10
 70.31512     58.3 1.024e+04 3.638e-10
 70.35464     59.7 1.044e+04 3.986e-10
 70.39415     61.3 1.055e+04 4.134e-10
 70.43367     63.1 1.060e+04 4.069e-10
 70.45482     64.8 1.062e+04 4.014e-10
 70.47458     63.8 1.068e+04 3.895e-10
 70.51270     65.5 1.061e+04 3.762e-10
 70.54224     67.1 1.060e+04 3.889e-10
 70.56190     67.8 1.062e+04 4.016e-10
 70.59164     69.5 1.080e+04 4.708e-10
 70.63125     71.4 1.119e+04 6.021e-10
 70.65121     71.4 1.136e+04 6.579e-10
 70.66099     70.9 1.110e+04 5.384e-10
 70.68045     71.0 1.131e+04 6.184e-10
 70.70021     70.8 1.157e+04 7.340e-10
 70.71997     70.5 1.186e+04 8.878e-10
 70.73973     70.0 1.227e+04 1.118e-09
 70.75949     69.3 1.280e+04 1.473e-09
 70.77252     68.7 1.335e+04 1.986e-09
 70.78240     67.5 1.235e+04 1.477e-09
 70.79900     67.3 1.263e+04 1.715e-09
 70.81876     67.1 1.276e+04 1.811e-09
 70.83852     66.9 1.255e+04 1.685e-09
 70.85828     66.6 1.205e+04 1.412e-09
 70.86947     66.4 1.158e+04 1.117e-09
 70.87935     67.0 1.152e+04 1.090e-09
 70.89780     67.2 1.125e+04 8.798e-10
 70.91755     67.4 1.098e+04 6.804e-10
 70.93147     67.3 1.069e+04 5.196e-10
 70.94135     66.4 1.008e+04 3.356e-10
 70.95707     66.3 9.952e+03 3.076e-10
 70.98681     67.3 1.028e+04 3.756e-10
 71.02642     69.6 9.868e+03 2.920e-10
 71.06594     72.1 9.404e+03 2.078e-10
 71.08802     74.7 9.160e+03 1.564e-10
 71.09294     75.2 9.066e+03 1.280e-10
 71.11037     76.0 8.814e+03 7.723e-11
 71.14497     78.3 8.747e+03 6.762e-11
 71.18449     80.8 8.725e+03 6.756e-11
 71.22400     83.4 8.713e+03 6.844e-11
 71.26352     86.2 8.715e+03 7.250e-11
 71.30304     89.1 8.761e+03 7.982e-11
 71.34256     91.9 8.838e+03 9.001e-11
 71.38207     94.7 8.946e+03 1.034e-10
 71.40851     97.4 9.063e+03 1.196e-10
 71.42827     97.9 8.809e+03 8.106e-11
 71.46111    100.7 8.906e+03 9.601e-11
 71.50062    103.4 8.996e+03 1.126e-10
 71.52473    106.0 9.095e+03 1.317e-10
 71.54449    106.5 9.156e+03 1.502e-10
 71.57966    109.1 9.295e+03 1.821e-10
 71.61917    111.6 9.457e+03 2.204e-10
 71.65869    114.1 9.642e+03 2.667e-10
 71.69821    116.4 9.851e+03 3.227e-10
 71.72641    118.6 1.007e+04 3.895e-10
 71.74616    118.7 9.736e+03 2.897e-10
 71.77724    120.9 9.920e+03 3.455e-10
 71.81676    123.0 1.013e+04 4.152e-10
 71.85627    125.1 1.036e+04 4.945e-10
 71.89579    127.1 1.059e+04 5.831e-10
 71.93531    129.1 1.079e+04 6.681e-10
 71.96145    131.0 1.099e+04 7.428e-10
 71.98121    131.2 1.084e+04 6.467e-10
 72.01434    133.1 1.099e+04 6.976e-10
 72.04430    135.0 1.118e+04 7.575e-10
 72.06406    135.3 1.086e+04 6.460e-10
 72.09337    137.0 1.109e+04 6.943e-10
 72.13289    138.5 1.117e+04 6.971e-10
 72.17241    139.9 1.117e+04 6.725e-10
 72.21192    141.5 1.109e+04 5.834e-10
 72.25144    143.3 1.091e+04 4.534e-10
 72.29096    145.3 1.069e+04 3.283e-10
 72.33047    147.5 1.049e+04 2.379e-10
 72.36220    149.7 1.036e+04 1.807e-10
 72.38196    149.4 1.038e+04 2.052e-10
 72.39816    151.7 1.038e+04 2.095e-10
 72.41792    151.8 1.043e+04 2.109e-10
 72.44903    154.2 1.047e+04 2.253e-10
 72.48854    156.5 1.061e+04 2.651e-10
 72.52806    158.7 1.082e+04 3.227e-10
 72.56758    160.8 1.102e+04 3.830e-10
 72.60709    162.8 1.111e+04 4.187e-10
 72.64661    164.9 1.111e+04 4.134e-10
 72.68010    167.0 1.111e+04 3.914e-10
 72.69985    166.1 1.095e+04 3.770e-10
 72.72564    168.5 1.077e+04 3.022e-10
 72.76516    170.9 1.056e+04 2.364e-10
 72.80468    173.3 1.033e+04 1.943e-10
 72.83487    175.7 1.015e+04 1.723e-10
 72.85463    176.4 1.002e+04 1.314e-10
 72.88371    178.9 9.928e+03 1.251e-10
 72.92323    181.6 9.864e+03 1.270e-10
 72.96274    184.2 9.821e+03 1.318e-10
 72.99799    186.8 9.784e+03 1.403e-10
 73.01775    186.7 9.738e+03 1.331e-10
 73.04178    189.4 9.729e+03 1.475e-10
 73.08129    192.0 9.702e+03 1.530e-10
 73.12081    194.5 9.691e+03 1.529e-10
 73.16033    197.0 9.645e+03 1.510e-10
 73.19984    199.7 9.566e+03 1.442e-10
 73.23936    202.3 9.477e+03 1.326e-10
 73.27158    205.1 9.393e+03 1.185e-10
 73.29134    206.0 9.411e+03 1.175e-10
 73.31589    208.8 9.329e+03 1.052e-10
 73.33565    208.8 9.385e+03 1.062e-10
 73.35791    211.7 9.307e+03 9.401e-11
 73.39743    214.6 9.242e+03 8.441e-11
 73.43695    217.5 9.177e+03 7.741e-11
 73.47646    220.5 9.118e+03 7.251e-11
 73.51598    223.5 9.064e+03 6.918e-11
 73.55550    226.5 9.020e+03 6.701e-11
 73.59501    229.5 8.983e+03 6.570e-11
 73.63378    232.5 8.961e+03 6.507e-11
 73.65354    232.5 9.000e+03 7.070e-11
 73.67405    235.6 8.989e+03 6.973e-11
 73.70830    238.6 8.989e+03 6.923e-11
 73.72805    239.6 9.063e+03 7.849e-11
 73.75308    242.6 9.069e+03 7.887e-11
 73.79260    245.5 9.089e+03 7.985e-11
 73.83211    248.4 9.112e+03 8.173e-11
 73.87163    251.3 9.130e+03 8.464e-11
 73.91115    254.2 9.149e+03 8.847e-11
 73.95066    257.2 9.169e+03 9.320e-11
 73.97144    260.1 9.187e+03 9.886e-11
 73.99120    260.0 9.159e+03 8.247e-11
 74.02970    262.9 9.164e+03 8.500e-11
 74.06921    265.9 9.161e+03 8.856e-11
 74.10873    268.9 9.151e+03 9.344e-11
 74.14501    271.8 9.134e+03 9.976e-11
 74.16477    272.5 9.116e+03 8.606e-11
 74.18776    275.4 9.085e+03 9.312e-11
 74.22728    278.2 9.073e+03 1.024e-10
 74.26680    281.0 9.076e+03 1.132e-10
 74.28934    283.7 9.097e+03 1.244e-10
 74.30909    283.6 9.024e+03 1.090e-10
 74.34583    286.2 9.053e+03 1.200e-10
 74.38535    288.7 9.084e+03 1.298e-10
 74.42486    291.2 9.114e+03 1.387e-10
 74.46438    293.4 9.154e+03 1.482e-10
 74.50390    295.6 9.209e+03 1.602e-10
 74.54342    297.6 9.281e+03 1.757e-10
 74.58172    299.6 9.353e+03 1.936e-10
 74.60148    300.6 9.219e+03 1.715e-10
 74.60723    302.6 9.307e+03 1.929e-10
 74.62699    302.8 9.303e+03 1.899e-10
 74.66197    304.8 9.431e+03 2.146e-10
 74.70148    306.7 9.534e+03 2.286e-10
 74.74100    308.5 9.549e+03 2.290e-10
 74.78052    310.4 9.539e+03 2.256e-10
 74.82003    312.2 9.472e+03 2.106e-10
 74.85955    314.2 9.358e+03 1.837e-10
 74.89907    316.3 9.209e+03 1.536e-10
 74.92513    318.4 9.049e+03 1.266e-10
 74.94489    318.4 9.111e+03 1.193e-10
 74.97810    320.7 8.911e+03 1.016e-10
 75.01762    323.0 8.797e+03 9.890e-11
 75.03819    325.5 8.791e+03 9.898e-11
 75.05795    326.4 8.729e+03 8.951e-11
 75.09665    328.8 8.725e+03 8.959e-11
 75.13617    331.4 8.713e+03 9.096e-11
 75.17568    334.0 8.690e+03 9.737e-11
 75.21520    336.6 8.742e+03 1.127e-10
 75.24302    339.4 9.130e+03 1.396e-10
 75.26278    340.2 9.573e+03 1.448e-10
 75.29423    341.3 9.784e+03 1.726e-10
 75.32377    342.6 9.821e+03 1.947e-10
 75.34343    342.7 9.929e+03 2.346e-10
 75.36319    342.5 1.042e+04 3.474e-10
 75.38295    342.3 1.129e+04 6.046e-10
 75.40178    342.3 1.242e+04 1.131e-09
 75.41166    340.9 1.312e+04 1.621e-09
 75.42247    341.5 1.421e+04 2.819e-09
 75.44223    342.4 1.515e+04 4.365e-09
 75.46199    342.9 1.572e+04 5.486e-09
 75.47471    343.5 1.624e+04 6.344e-09
 75.47960    343.7 1.649e+04 6.589e-09
 75.48609    343.8 1.697e+04 7.658e-09
 75.49103    343.1 1.710e+04 7.971e-09
 75.49646    343.4 1.734e+04 8.510e-09
 75.50634    343.5 1.737e+04 8.545e-09
 75.52121    344.2 1.747e+04 8.784e-09
 75.54102    344.6 1.741e+04 8.362e-09
 75.56073    345.1 1.708e+04 6.873e-09
 75.58048    343.3 1.543e+04 3.130e-09
 75.60029    342.9 1.407e+04 2.025e-09
 75.62005    342.5 1.258e+04 1.405e-09
 75.63981    342.5 1.140e+04 1.108e-09
 75.65957    342.7 1.080e+04 9.726e-10
 75.67933    343.4 1.066e+04 8.987e-10
 75.69306    344.4 1.071e+04 8.306e-10
 75.70294    344.8 1.060e+04 7.528e-10
 75.71884    345.8 1.059e+04 6.938e-10
 75.72955    346.8 1.058e+04 6.227e-10
 75.73943    345.9 1.032e+04 4.743e-10
 75.75836    346.4 1.020e+04 4.060e-10
 75.77812    346.9 1.005e+04 3.445e-10
 75.79788    347.4 9.864e+03 2.960e-10
 75.81764    348.1 9.674e+03 2.644e-10
 75.83739    348.9 9.527e+03 2.484e-10
 75.85715    349.8 9.459e+03 2.473e-10
 75.87872    351.2 9.648e+03 2.696e-10
 75.89858    352.1 9.497e+03 2.490e-10
 75.91152    353.1 9.573e+03 2.629e-10
 75.92130    354.4 9.506e+03 2.610e-10
 75.93619    355.5 9.525e+03 2.716e-10
 75.95594    356.7 9.571e+03 2.898e-10
 75.97570    357.8 9.686e+03 3.194e-10
 75.99546    358.8 9.857e+03 3.597e-10
 76.01522    359.7 1.013e+04 4.190e-10
 76.03498    360.6 1.045e+04 5.099e-10
 76.04745    361.6 1.081e+04 6.311e-10
 76.05733    360.6 1.169e+04 9.311e-10
 76.07450    361.8 1.197e+04 1.136e-09
 76.09425    363.1 1.224e+04 1.350e-09
 76.11401    364.3 1.253e+04 1.579e-09
 76.12978    365.7 1.285e+04 1.836e-09
 76.13966    365.9 1.360e+04 2.299e-09
 76.15353    367.4 1.390e+04 2.697e-09
 76.17329    368.9 1.421e+04 3.170e-09
 76.19305    370.4 1.454e+04 3.733e-09
 76.20640    372.1 1.496e+04 4.440e-09
 76.21628    371.7 1.583e+04 5.881e-09
 76.23256    373.9 1.630e+04 6.819e-09
 76.25232    376.5 1.699e+04 8.342e-09
 76.26709    377.7 1.728e+04 9.256e-09
 76.27692    378.7 1.762e+04 1.027e-08
 76.28577    379.4 1.801e+04 1.163e-08
 76.29071    378.2 1.836e+04 1.336e-08
 76.29668    378.9 1.872e+04 1.573e-08
 76.30656    379.8 1.910e+04 1.870e-08
 76.31644    380.8 1.954e+04 2.259e-08
 76.32632    381.9 2.005e+04 2.756e-08
 76.33620    382.7 2.050e+04 3.352e-08
 76.34608    383.4 2.087e+04 3.968e-08
 76.35297    384.2 2.111e+04 4.537e-08
 76.35791    384.9 2.100e+04 6.174e-08
 76.36525    385.7 2.113e+04 7.091e-08
 76.37019    384.8 2.080e+04 5.765e-08
 76.37571    385.3 2.094e+04 6.095e-08
 76.38559    385.8 2.106e+04 6.275e-08
 76.39547    386.2 2.117e+04 6.370e-08
 76.40535    386.5 2.129e+04 6.466e-08
 76.41523    386.8 2.141e+04 6.623e-08
 76.42511    387.0 2.151e+04 6.856e-08
 76.43499    387.4 2.159e+04 7.161e-08
 76.44472    388.0 2.164e+04 7.552e-08
 76.44966    386.6 2.143e+04 5.278e-08
 76.45475    387.1 2.140e+04 5.637e-08
 76.46215    387.6 2.137e+04 6.104e-08
 76.46709    387.3 2.259e+04 4.670e-08
 76.47451    387.8 2.251e+04 4.958e-08
 76.48438    388.2 2.245e+04 5.374e-08
 76.49426    388.7 2.243e+04 5.940e-08
 76.50414    389.0 2.249e+04 6.608e-08
 76.51402    389.0 2.270e+04 7.142e-08
 76.52390    388.8 2.299e+04 7.196e-08
 76.52914    388.2 2.303e+04 7.135e-08
 76.53408    386.0 2.391e+04 4.044e-08
 76.54366    385.5 2.403e+04 3.775e-08
 76.55354    385.1 2.405e+04 3.428e-08
 76.56342    384.7 2.401e+04 3.142e-08
 76.57133    384.3 2.387e+04 3.084e-08
 76.57627    384.9 2.669e+04 1.354e-08
 76.58318    384.2 2.636e+04 1.374e-08
 76.59306    383.7 2.605e+04 1.424e-08
 76.60293    383.1 2.540e+04 1.562e-08
 76.60861    382.8 2.476e+04 1.787e-08
 76.61355    380.7 2.400e+04 1.097e-08
 76.62269    380.7 2.363e+04 1.323e-08
 76.63257    380.6 2.338e+04 1.610e-08
 76.64245    380.4 2.327e+04 1.991e-08
 76.65233    380.0 2.341e+04 2.585e-08
 76.66221    378.7 2.389e+04 3.688e-08
 76.67209    376.2 2.478e+04 5.843e-08
 76.68051    372.8 2.585e+04 9.477e-08
 76.68545    371.3 2.565e+04 4.692e-08
 76.68808    366.9 2.658e+04 8.491e-08
 76.69302    362.5 2.636e+04 6.527e-08
 76.70173    356.6 2.843e+04 8.129e-08
 76.71161    349.5 2.941e+04 7.837e-08
 76.72149    341.7 3.051e+04 6.497e-08
 76.73136    334.8 3.155e+04 3.994e-08
 76.74124    330.7 3.130e+04 2.096e-08
 76.75112    328.8 3.035e+04 1.068e-08
 76.76599    324.7 2.986e+04 2.548e-09
 76.78485    313.3 2.129e+04 3.108e-10
 76.79472    316.7 2.165e+04 5.380e-10
 76.80556    306.8 1.476e+04 2.075e-10
 76.83241    300.5 1.139e+04 2.261e-10
 76.85226    303.8 1.146e+04 2.144e-10
 76.87491    302.3 9.985e+03 2.169e-10
 76.91442    302.7 9.875e+03 2.121e-10
 76.95394    303.7 9.882e+03 2.117e-10
 76.99346    304.7 9.915e+03 2.138e-10
 77.03297    305.4 9.996e+03 2.216e-10
 77.07249    305.5 1.011e+04 2.355e-10
 77.11201    305.5 1.026e+04 2.559e-10
 77.15040    305.5 1.039e+04 2.791e-10
 77.17016    305.7 1.031e+04 2.622e-10
 77.19104    305.7 1.041e+04 2.826e-10
 77.22175    305.8 1.046e+04 2.974e-10
 77.24151    306.0 1.061e+04 3.245e-10
 77.27007    306.1 1.060e+04 3.269e-10
 77.30959    306.2 1.058e+04 3.284e-10
 77.34911    306.2 1.055e+04 3.279e-10
 77.38862    306.1 1.054e+04 3.215e-10
 77.42814    305.7 1.051e+04 3.085e-10
 77.46766    304.7 1.047e+04 2.823e-10
 77.48806    303.3 1.037e+04 2.425e-10
 77.50782    304.0 1.049e+04 2.670e-10
 77.54669    302.3 1.030e+04 2.143e-10
 77.58621    300.3 1.005e+04 1.692e-10
 77.62572    298.5 9.792e+03 1.447e-10
 77.65846    296.8 9.680e+03 1.418e-10
 77.67822    297.7 9.768e+03 1.554e-10
 77.70476    296.2 9.754e+03 1.553e-10
 77.74427    295.0 9.757e+03 1.557e-10
 77.78379    293.8 9.794e+03 1.593e-10
 77.80595    292.5 9.940e+03 1.741e-10
 77.82571    293.4 9.878e+03 1.725e-10
 77.86283    291.9 1.014e+04 2.003e-10
 77.90234    290.2 1.051e+04 2.495e-10
 77.94186    288.2 1.088e+04 3.153e-10
 77.98138    286.2 1.104e+04 3.618e-10
 78.02089    284.0 1.104e+04 3.645e-10
 78.06041    281.8 1.099e+04 3.546e-10
 78.09518    279.9 1.079e+04 3.105e-10
 78.11494    280.1 1.087e+04 3.206e-10
 78.12385    278.4 1.060e+04 2.574e-10
 78.14361    280.4 1.059e+04 2.593e-10
 78.17896    278.8 1.027e+04 1.998e-10
 78.21848    277.5 9.960e+03 1.696e-10
 78.25799    276.4 9.892e+03 1.680e-10
 78.29751    275.6 9.892e+03 1.709e-10
 78.33703    274.7 9.954e+03 1.879e-10
 78.37654    273.6 1.022e+04 2.291e-10
 78.41606    272.3 1.058e+04 2.912e-10
 78.44175    271.1 1.083e+04 3.540e-10
 78.46150    273.2 1.081e+04 3.553e-10
 78.48512    272.1 1.102e+04 4.306e-10
 78.50478    271.6 1.132e+04 5.467e-10
 78.52454    271.1 1.167e+04 6.977e-10
 78.54157    270.3 1.199e+04 8.372e-10
 78.55145    270.6 1.213e+04 9.093e-10
 78.56405    269.6 1.235e+04 9.788e-10
 78.58381    268.2 1.246e+04 1.000e-09
 78.60050    266.6 1.251e+04 1.017e-09
 78.61038    267.9 1.273e+04 1.132e-09
 78.62333    265.9 1.275e+04 1.144e-09
 78.64309    263.6 1.287e+04 1.219e-09
 78.66284    261.0 1.328e+04 1.480e-09
 78.68260    258.2 1.412e+04 2.084e-09
 78.70236    255.3 1.516e+04 3.147e-09
 78.72212    252.5 1.611e+04 4.431e-09
 78.74188    249.5 1.672e+04 4.985e-09
 78.75945    246.4 1.674e+04 4.911e-09
 78.76762    248.5 1.653e+04 4.853e-09
 78.76981    248.4 1.666e+04 4.947e-09
 78.78140    245.4 1.663e+04 4.782e-09
 78.80115    242.6 1.630e+04 4.219e-09
 78.82091    240.2 1.564e+04 3.335e-09
 78.84067    238.0 1.468e+04 2.449e-09
 78.86043    236.2 1.365e+04 1.778e-09
 78.88019    234.5 1.274e+04 1.345e-09
 78.89995    233.2 1.206e+04 1.091e-09
 78.91840    232.1 1.163e+04 9.518e-10
 78.92827    233.7 1.215e+04 1.157e-09
 78.93946    232.7 1.172e+04 1.008e-09
 78.95922    231.9 1.147e+04 9.471e-10
 78.97829    231.2 1.142e+04 9.447e-10
 78.98816    230.9 1.144e+04 9.578e-10
 78.99874    230.3 1.147e+04 9.877e-10
 79.01850    229.7 1.151e+04 1.011e-09
 79.03825    229.0 1.151e+04 1.011e-09
 79.05801    228.2 1.148e+04 9.991e-10
 79.07734    227.4 1.136e+04 9.424e-10
 79.08722    228.3 1.129e+04 9.171e-10
 79.09753    227.5 1.112e+04 8.177e-10
 79.12726    226.2 1.085e+04 6.731e-10
 79.16688    223.2 1.038e+04 5.186e-10
 79.20640    219.9 1.000e+04 4.209e-10
 79.24591    216.2 9.842e+03 3.697e-10
 79.28543    213.3 9.658e+03 3.568e-10
 79.31497    213.0 9.601e+03 3.630e-10
 79.33463    212.2 9.618e+03 3.906e-10
 79.35439    210.9 9.872e+03 4.697e-10
 79.37415    209.7 1.015e+04 5.750e-10
 79.39391    208.5 1.049e+04 7.476e-10
 79.40512    204.6 1.154e+04 1.423e-09
 79.41500    207.0 1.099e+04 1.005e-09
 79.42488    200.2 1.470e+04 2.065e-09
 79.43476    200.1 1.469e+04 2.265e-09
 79.45318    191.5 1.963e+04 5.089e-09
 79.46795    184.9 2.159e+04 9.618e-09
 79.47778    180.1 2.241e+04 1.635e-08
 79.48450    176.3 2.251e+04 2.735e-08
 79.48944    178.3 2.250e+04 2.688e-08
 79.49754    175.3 2.242e+04 4.511e-08
 79.50742    173.4 2.217e+04 5.696e-08
 79.51730    172.1 2.219e+04 5.608e-08
 79.52718    171.0 2.253e+04 4.681e-08
 79.53396    169.9 2.331e+04 3.016e-08
 79.53890    170.3 2.346e+04 2.663e-08
 79.55192    165.9 2.660e+04 5.525e-09
 79.56407    155.5 2.771e+04 5.263e-10
 79.57395    163.4 2.772e+04 2.834e-09
 79.59149    150.9 1.886e+04 4.851e-10
 79.61125    142.7 1.097e+04 5.588e-10
 79.63101    141.7 1.081e+04 5.705e-10
 79.64323    141.4 1.098e+04 6.282e-10
 79.65311    142.4 1.093e+04 6.203e-10
 79.67052    141.7 1.128e+04 7.342e-10
 79.69028    140.6 1.184e+04 9.609e-10
 79.71004    139.5 1.255e+04 1.354e-09
 79.72302    138.5 1.327e+04 1.938e-09
 79.73289    140.2 1.271e+04 1.443e-09
 79.74956    139.0 1.352e+04 2.081e-09
 79.76931    137.8 1.426e+04 2.855e-09
 79.78907    136.5 1.483e+04 3.483e-09
 79.80883    135.2 1.500e+04 3.623e-09
 79.82859    133.9 1.488e+04 3.386e-09
 79.84835    132.8 1.443e+04 2.780e-09
 79.86159    131.8 1.371e+04 2.104e-09
 79.87147    132.5 1.362e+04 2.067e-09
 79.88196    131.5 1.292e+04 1.503e-09
 79.89184    132.8 1.375e+04 2.130e-09
 79.91760    130.8 1.252e+04 1.045e-09
 79.95721    128.5 1.088e+04 4.705e-10
 79.99673    127.5 9.358e+03 2.298e-10
 80.03123    127.5 8.662e+03 1.455e-10
 80.05099    128.1 8.718e+03 1.322e-10
 80.07577    128.4 8.532e+03 1.256e-10
 80.11528    129.7 8.485e+03 1.250e-10
 80.15480    131.6 8.468e+03 1.279e-10
 80.19432    133.4 8.471e+03 1.348e-10
 80.23383    135.0 8.471e+03 1.379e-10
 80.27335    136.4 8.456e+03 1.359e-10
 80.29850    137.8 8.392e+03 1.271e-10
 80.31826    138.2 8.470e+03 1.389e-10
 80.34912    139.6 8.345e+03 1.214e-10
 80.36888    140.2 8.292e+03 1.095e-10
 80.39190    141.4 8.123e+03 9.455e-11
 80.43142    142.8 8.033e+03 9.160e-11
 80.47093    144.2 8.030e+03 9.260e-11
 80.51045    145.7 8.040e+03 9.852e-11
 80.54997    147.1 8.103e+03 1.112e-10
 80.58948    148.5 8.194e+03 1.272e-10
 80.62900    149.7 8.274e+03 1.416e-10
 80.66702    150.7 8.322e+03 1.506e-10
 80.68678    151.5 8.323e+03 1.501e-10
 80.70803    152.4 8.341e+03 1.541e-10
 80.73521    153.2 8.354e+03 1.581e-10
 80.75497    153.8 8.342e+03 1.561e-10
 80.78707    154.4 8.433e+03 1.695e-10
 80.82658    154.6 8.631e+03 1.976e-10
 80.86610    154.6 8.916e+03 2.451e-10
 80.90562    154.3 9.224e+03 3.080e-10
 80.94513    153.4 9.471e+03 3.719e-10
 80.98465    152.3 9.545e+03 4.133e-10
 81.00458    153.0 9.771e+03 5.077e-10
 81.01436    153.0 9.729e+03 4.890e-10
 81.03385    153.2 9.900e+03 5.651e-10
 81.05361    153.1 1.012e+04 6.572e-10
 81.07337    152.3 1.064e+04 8.138e-10
 81.09313    150.0 1.174e+04 1.162e-09
 81.11289    146.9 1.314e+04 1.869e-09
 81.13264    144.1 1.427e+04 3.043e-09
 81.15240    141.7 1.494e+04 4.272e-09
 81.16343    139.2 1.554e+04 4.631e-09
 81.17287    138.7 1.536e+04 4.176e-09
 81.18161    140.0 1.477e+04 3.910e-09
 81.19192    136.8 1.536e+04 3.938e-09
 81.21168    132.2 1.552e+04 3.728e-09
 81.23144    126.4 1.558e+04 3.205e-09
 81.25119    120.1 1.496e+04 2.686e-09
 81.27095    114.7 1.401e+04 2.279e-09
 81.29071    110.5 1.331e+04 1.923e-09
 81.31047    108.0 1.287e+04 1.617e-09
 81.32238    105.9 1.255e+04 1.318e-09
 81.33226    105.1 1.259e+04 1.336e-09
 81.34999    104.4 1.241e+04 1.200e-09
 81.37972    101.6 1.194e+04 8.819e-10
 81.41934    100.0 1.066e+04 4.366e-10
 81.45885     99.0 9.397e+03 2.379e-10
 81.49837     98.8 9.173e+03 2.165e-10
 81.53789     99.2 9.179e+03 2.244e-10
 81.57740    100.1 9.363e+03 2.719e-10
 81.60863    100.2 9.864e+03 3.848e-10
 81.62839     98.5 9.982e+03 4.259e-10
 81.64047     98.2 1.061e+04 6.226e-10
 81.66023     98.0 1.074e+04 6.611e-10
 81.68598     97.6 1.090e+04 7.465e-10
 81.70564     97.6 1.106e+04 8.301e-10
 81.72540     97.4 1.133e+04 9.632e-10
 81.74515     96.9 1.163e+04 1.112e-09
 81.76491     96.3 1.189e+04 1.233e-09
 81.78467     95.5 1.202e+04 1.297e-09
 81.79922     94.5 1.213e+04 1.338e-09
 81.80910     94.8 1.192e+04 1.251e-09
 81.82419     93.7 1.181e+04 1.193e-09
 81.83667     92.5 1.172e+04 1.131e-09
 81.84655     91.8 1.169e+04 1.129e-09
 81.86370     90.6 1.150e+04 1.051e-09
 81.88346     89.1 1.145e+04 9.933e-10
 81.90322     87.9 1.144e+04 9.575e-10
 81.92298     86.2 1.155e+04 9.490e-10
 81.94274     85.5 1.161e+04 9.491e-10
 81.95827     82.9 1.198e+04 1.001e-09
 81.97812     84.3 1.161e+04 8.749e-10
 82.01209     81.4 1.167e+04 9.175e-10
 82.04535     78.6 1.161e+04 8.959e-10
 82.06510     77.4 1.231e+04 1.259e-09
 82.09112     75.0 1.194e+04 1.056e-09
 82.13064     73.5 1.118e+04 6.448e-10
 82.17016     71.9 1.014e+04 3.113e-10
 82.20967     69.9 9.099e+03 1.709e-10
 82.24919     68.7 8.730e+03 1.414e-10
 82.27626     68.6 8.651e+03 1.420e-10
 82.29602     70.2 8.638e+03 1.340e-10
 82.32822     70.4 8.619e+03 1.376e-10
 82.36774     70.8 8.676e+03 1.477e-10
 82.40726     71.2 8.792e+03 1.606e-10
 82.44677     71.5 8.900e+03 1.738e-10
 82.48206     71.8 8.965e+03 1.825e-10
 82.50182     72.1 8.996e+03 1.855e-10
 82.52581     72.5 8.973e+03 1.828e-10
 82.56532     73.2 8.969e+03 1.829e-10
 82.59416     74.1 8.970e+03 1.858e-10
 82.61392     76.1 8.957e+03 1.765e-10
 82.64436     77.1 8.998e+03 1.846e-10
 82.68387     78.3 9.107e+03 1.975e-10
 82.72339     79.5 9.148e+03 2.028e-10
 82.76291     80.8 9.136e+03 1.994e-10
 82.80242     82.2 9.072e+03 1.850e-10
 82.84194     83.6 8.949e+03 1.594e-10
 82.88146     84.8 8.798e+03 1.352e-10
 82.91205     85.9 8.773e+03 1.323e-10
 82.92961     88.6 8.651e+03 1.151e-10
 82.93853     88.4 8.857e+03 1.433e-10
 82.96049     89.7 8.872e+03 1.455e-10
 83.00001     90.6 9.019e+03 1.667e-10
 83.03952     90.8 9.371e+03 2.268e-10
 83.07904     90.6 9.778e+03 3.092e-10
 83.11856     89.2 9.950e+03 3.683e-10
 83.14691     90.1 1.016e+04 4.639e-10
 83.15669     89.8 1.011e+04 4.499e-10
 83.16776     89.7 1.066e+04 6.155e-10
 83.18752     89.1 1.144e+04 8.853e-10
 83.20728     88.0 1.220e+04 1.242e-09
 83.22703     86.7 1.290e+04 1.678e-09
 83.23963     85.6 1.352e+04 2.148e-09
 83.24951     87.8 1.371e+04 2.244e-09
 83.26655     86.4 1.433e+04 2.672e-09
 83.28631     85.0 1.440e+04 2.667e-09
 83.30607     83.8 1.423e+04 2.454e-09
 83.32583     82.9 1.370e+04 1.919e-09
 83.34558     82.0 1.294e+04 1.318e-09
 83.36517     80.5 1.205e+04 8.675e-10
 83.37505     78.7 1.214e+04 8.826e-10
 83.38510     76.6 1.162e+04 7.417e-10
 83.39858     75.4 1.162e+04 7.561e-10
 83.40846     76.3 1.170e+04 7.380e-10
 83.42462     75.5 1.182e+04 8.022e-10
 83.44438     74.5 1.286e+04 1.260e-09
 83.46413     73.2 1.625e+04 2.700e-09
 83.47801     72.7 1.763e+04 3.645e-09
 83.48290     73.3 1.712e+04 3.408e-09
 83.48413     72.1 2.006e+04 4.791e-09
 83.48907     67.7 2.291e+04 7.984e-09
 83.49861     62.7 2.823e+04 1.892e-08
 83.50849     58.0 2.813e+04 5.307e-08
 83.51837     54.3 2.505e+04 1.352e-07
 83.52825     52.8 2.198e+04 2.780e-07
 83.53813     52.5 2.094e+04 3.554e-07
 83.54801     52.0 2.104e+04 3.303e-07
 83.55743     51.0 2.189e+04 2.164e-07
 83.56237     51.0 2.177e+04 2.516e-07
 83.56777     48.3 2.502e+04 8.756e-08
 83.57765     40.7 3.288e+04 1.956e-08
 83.58753     27.5 3.783e+04 5.194e-09
 83.59335     10.6 2.723e+04 3.377e-09
 83.60328      2.8 1.587e+04 2.787e-09
 83.62220     -1.3 1.371e+04 2.194e-09
 83.64196     -2.3 1.349e+04 1.983e-09
 83.66172     -3.4 1.306e+04 1.673e-09
 83.68148     -3.2 1.305e+04 1.454e-09
 83.71121     -8.5 1.217e+04 8.808e-10
 83.75083    -13.1 9.525e+03 2.275e-10
 83.79034    -14.8 8.529e+03 1.325e-10
 83.81195    -14.9 8.312e+03 1.093e-10
 83.83171    -14.2 8.326e+03 1.214e-10
 83.86574    -13.8 8.165e+03 9.950e-11
 83.88550    -13.9 8.136e+03 9.347e-11
 83.90889    -13.7 7.921e+03 7.012e-11
 83.94841    -13.4 7.799e+03 5.463e-11
 83.98793    -13.5 7.766e+03 4.832e-11
 84.02744    -13.8 7.802e+03 4.929e-11
 84.06696    -14.1 7.975e+03 7.019e-11
 84.10648    -13.2 8.141e+03 9.757e-11
 84.14599    -11.9 8.311e+03 1.118e-10
 84.18364    -11.2 8.334e+03 1.122e-10
 84.20340    -11.6 8.283e+03 1.042e-10
 84.22503    -11.3 8.191e+03 9.161e-11
 84.24867    -11.3 8.140e+03 8.471e-11
 84.26842    -10.9 8.135e+03 8.541e-11
 84.30406    -10.7 8.080e+03 8.441e-11
 84.34358     -9.8 8.048e+03 9.318e-11
 84.38310     -8.2 8.064e+03 9.795e-11
 84.42261     -6.9 8.061e+03 9.743e-11
 84.46213     -5.9 8.090e+03 9.336e-11
 84.50153     -5.6 8.228e+03 9.481e-11
 84.54105     -6.7 9.238e+03 1.781e-10
 84.58068     -7.6 1.027e+04 3.820e-10
 84.62020     -7.6 1.147e+04 7.562e-10
 84.65971     -7.3 1.232e+04 1.070e-09
 84.68538     -8.3 1.247e+04 1.067e-09
 84.70514     -6.7 1.216e+04 1.058e-09
 84.73875     -7.4 1.228e+04 1.013e-09
 84.76829    -14.1 9.688e+03 3.272e-10
 84.78795    -10.7 1.049e+04 4.375e-10
 84.80771    -11.7 1.108e+04 4.845e-10
 84.82746    -12.4 1.234e+04 6.103e-10
 84.83899    -14.0 1.257e+04 7.361e-10
 84.84887    -15.7 1.214e+04 9.209e-10
 84.86698    -16.1 1.158e+04 1.015e-09
 84.88674    -15.2 1.147e+04 1.050e-09
 84.90354    -13.9 1.147e+04 1.055e-09
 84.91342    -13.3 1.161e+04 1.138e-09
 84.92626    -12.2 1.179e+04 1.124e-09
 84.94601    -11.8 1.149e+04 8.470e-10
 84.96577    -13.0 1.065e+04 5.845e-10
 84.98553    -12.9 1.046e+04 5.052e-10
 84.99794    -13.3 1.041e+04 4.276e-10
 85.00782    -13.9 1.050e+04 3.721e-10
 85.02505    -13.5 1.053e+04 3.650e-10
 85.04481    -14.1 1.047e+04 3.629e-10
 85.06456    -14.6 1.044e+04 4.203e-10
 85.08432    -14.1 1.074e+04 5.416e-10
 85.10408    -13.1 1.088e+04 6.715e-10
 85.12189    -12.0 1.078e+04 7.681e-10
 85.13177    -11.1 1.087e+04 8.108e-10
 85.14360    -10.9 1.195e+04 1.090e-09
 85.15689    -14.1 1.551e+04 1.928e-09
 85.16677    -13.9 1.493e+04 1.895e-09
 85.18311    -18.2 1.750e+04 3.992e-09
 85.20287    -20.1 1.782e+04 7.263e-09
 85.21764    -20.2 1.770e+04 9.441e-09
 85.22747    -20.0 1.743e+04 1.080e-08
 85.23591    -20.1 1.707e+04 1.309e-08
 85.23977    -19.9 1.780e+04 1.720e-08
 85.24121    -20.1 1.763e+04 1.428e-08
 85.24723    -18.7 1.811e+04 1.642e-08
 85.25711    -17.5 1.865e+04 1.799e-08
 85.26699    -17.4 1.868e+04 1.687e-08
 85.27687    -17.0 1.913e+04 1.460e-08
 85.28675    -16.7 1.999e+04 1.256e-08
 85.30162    -19.3 2.005e+04 9.597e-09
 85.31584    -25.6 1.733e+04 5.306e-09
 85.32073    -26.5 1.635e+04 4.407e-09
 85.32627    -27.4 1.590e+04 4.065e-09
 85.34020    -29.4 1.477e+04 3.455e-09
 85.35013    -30.0 1.515e+04 3.869e-09
 85.36094    -29.4 1.497e+04 4.137e-09
 85.38070    -28.2 1.547e+04 4.558e-09
 85.40046    -27.4 1.587e+04 5.023e-09
 85.42022    -26.8 1.635e+04 5.584e-09
 85.43997    -26.5 1.698e+04 6.534e-09
 85.45973    -26.4 1.796e+04 8.290e-09
 85.47479    -26.2 1.949e+04 1.165e-08
 85.48467    -27.7 1.948e+04 1.326e-08
 85.49426    -27.8 2.054e+04 1.681e-08
 85.50409    -27.9 2.121e+04 2.083e-08
 85.51397    -28.2 2.170e+04 2.454e-08
 85.52385    -28.1 2.253e+04 3.076e-08
 85.53373    -28.9 2.304e+04 4.066e-08
 85.54361    -30.1 2.283e+04 5.952e-08
 85.55349    -32.1 2.223e+04 9.318e-08
 85.55910    -35.1 2.242e+04 1.389e-07
 85.56404    -37.1 2.161e+04 1.634e-07
 85.56839    -40.1 2.185e+04 2.380e-07
 85.57333    -41.0 2.199e+04 9.753e-08
 85.58312    -44.3 2.251e+04 1.169e-07
 85.59300    -47.6 2.252e+04 1.212e-07
 85.60288    -49.5 2.232e+04 1.001e-07
 85.61276    -50.3 2.214e+04 8.147e-08
 85.62264    -50.4 2.225e+04 6.596e-08
 85.63252    -50.4 2.272e+04 5.125e-08
 85.63858    -50.6 2.343e+04 3.942e-08
 85.64352    -51.0 2.351e+04 3.036e-08
 85.65228    -52.2 2.351e+04 2.322e-08
 85.66216    -53.9 2.269e+04 1.689e-08
 85.67204    -56.0 2.099e+04 1.203e-08
 85.67757    -58.5 1.899e+04 8.895e-09
 85.68251    -58.1 1.920e+04 9.152e-09
 85.69180    -60.6 1.727e+04 6.772e-09
 85.70167    -61.9 1.638e+04 5.573e-09
 85.71155    -62.7 1.614e+04 5.069e-09
 85.71805    -63.3 1.609e+04 4.704e-09
 85.72299    -63.2 1.641e+04 4.921e-09
 85.73131    -63.8 1.642e+04 4.587e-09
 85.74119    -64.4 1.637e+04 4.289e-09
 85.75606    -65.9 1.641e+04 3.934e-09
 85.77587    -68.2 1.568e+04 3.060e-09
 85.78684    -69.9 1.462e+04 2.627e-09
 85.79378    -70.5 1.378e+04 2.344e-09
 85.80256    -71.2 1.363e+04 2.220e-09
 85.81538    -71.6 1.352e+04 2.198e-09
 85.83514    -71.7 1.346e+04 2.280e-09
 85.85490    -71.8 1.358e+04 2.404e-09
 85.87466    -71.9 1.379e+04 2.589e-09
 85.89442    -73.2 1.468e+04 3.017e-09
 85.91418    -76.9 1.662e+04 4.024e-09
 85.93393    -81.8 1.884e+04 6.371e-09
 85.95163    -86.2 2.025e+04 1.074e-08
 85.96151    -83.6 1.871e+04 7.636e-09
 85.97345    -87.0 1.969e+04 1.105e-08
 85.99321    -90.0 2.016e+04 1.363e-08
 86.00520    -93.0 2.029e+04 1.422e-08
 86.01009    -92.8 2.050e+04 1.651e-08
 86.01781    -93.8 2.059e+04 1.635e-08
 86.02769    -95.9 2.036e+04 1.422e-08
 86.03595    -97.4 2.017e+04 1.179e-08
 86.04089    -97.4 2.005e+04 1.153e-08
 86.04745   -100.6 1.919e+04 8.154e-09
 86.05733   -102.6 1.860e+04 6.555e-09
 86.07219   -107.8 1.666e+04 4.172e-09
 86.09200   -113.3 1.425e+04 2.691e-09
 86.11058   -115.6 1.347e+04 2.277e-09
 86.12046   -114.7 1.363e+04 2.299e-09
 86.13152   -116.1 1.316e+04 1.992e-09
 86.15128   -116.6 1.303e+04 1.835e-09
 86.17103   -117.0 1.285e+04 1.673e-09
 86.19079   -117.2 1.264e+04 1.544e-09
 86.21055   -117.3 1.255e+04 1.510e-09
 86.22355   -117.3 1.254e+04 1.508e-09
 86.23343   -117.3 1.250e+04 1.495e-09
 86.25007   -117.6 1.285e+04 1.699e-09
 86.26953   -118.1 1.361e+04 2.091e-09
 86.27941   -118.1 1.375e+04 2.210e-09
 86.28958   -118.6 1.464e+04 2.795e-09
 86.30934   -119.3 1.546e+04 3.530e-09
 86.32910   -120.1 1.592e+04 4.104e-09
 86.34886   -121.1 1.602e+04 4.262e-09
 86.36862   -122.3 1.579e+04 4.163e-09
 86.38838   -124.1 1.549e+04 3.757e-09
 86.40814   -127.5 1.552e+04 3.586e-09
 86.42789   -133.8 1.665e+04 3.664e-09
 86.43836   -141.6 1.925e+04 5.913e-09
 86.44249   -144.0 2.012e+04 7.921e-09
 86.45179   -144.0 1.951e+04 7.311e-09
 86.46741   -150.4 2.062e+04 1.162e-08
 86.48717   -157.2 2.098e+04 1.375e-08
 86.50693   -164.9 2.088e+04 1.360e-08
 86.52669   -173.7 1.952e+04 9.196e-09
 86.54644   -183.2 1.697e+04 4.936e-09
 86.56620   -191.0 1.452e+04 2.987e-09
 86.58596   -195.6 1.340e+04 2.182e-09
 86.59730   -198.5 1.304e+04 1.764e-09
 86.60718   -199.4 1.257e+04 1.458e-09
 86.62548   -202.6 1.248e+04 1.347e-09
 86.64524   -209.2 1.291e+04 1.332e-09
 86.66027   -220.6 1.918e+04 1.488e-09
 86.67015   -223.8 2.092e+04 2.885e-09
 86.68475   -232.7 2.229e+04 7.728e-09
 86.70451   -239.7 2.235e+04 1.494e-08
 86.72427   -246.3 2.210e+04 1.903e-08
 86.73904   -250.3 2.211e+04 2.252e-08
 86.74887   -252.8 2.136e+04 1.909e-08
 86.75620   -255.9 2.024e+04 1.357e-08
 86.76114   -253.7 2.097e+04 1.979e-08
 86.76863   -255.5 2.011e+04 1.391e-08
 86.77429   -257.0 1.924e+04 9.784e-09
 86.77923   -256.9 1.908e+04 9.382e-09
 86.78839   -258.2 1.836e+04 7.138e-09
 86.80325   -260.0 1.748e+04 5.163e-09
 86.82306   -263.1 1.554e+04 2.943e-09
 86.84282   -265.4 1.449e+04 2.270e-09
 86.86258   -267.0 1.355e+04 2.004e-09
 86.87862   -267.3 1.339e+04 1.974e-09
 86.88850   -267.0 1.290e+04 1.713e-09
 86.90210   -266.9 1.318e+04 2.100e-09
 86.91520   -266.5 1.374e+04 2.646e-09
 86.92508   -266.0 1.321e+04 2.114e-09
 86.94161   -265.5 1.379e+04 2.732e-09
 86.96137   -264.9 1.417e+04 3.220e-09
 86.98113   -264.5 1.434e+04 3.427e-09
 87.00089   -264.2 1.436e+04 3.456e-09
 87.02065   -263.7 1.422e+04 3.373e-09
 87.04040   -263.0 1.387e+04 3.011e-09
 87.06016   -262.2 1.347e+04 2.553e-09
 87.07415   -261.6 1.303e+04 2.143e-09
 87.08403   -261.1 1.329e+04 2.542e-09
 87.09698   -260.4 1.298e+04 2.235e-09
 87.10686   -260.0 1.275e+04 2.090e-09
 87.11944   -259.3 1.256e+04 1.912e-09
 87.13920   -258.7 1.241e+04 1.778e-09
 87.15895   -258.0 1.229e+04 1.680e-09
 87.17871   -257.4 1.220e+04 1.610e-09
 87.19847   -256.9 1.212e+04 1.566e-09
 87.21823   -256.3 1.208e+04 1.550e-09
 87.23310   -255.8 1.207e+04 1.549e-09
 87.24298   -255.2 1.222e+04 1.628e-09
 87.25775   -254.8 1.222e+04 1.628e-09
 87.27750   -254.4 1.222e+04 1.636e-09
 87.29726   -254.1 1.223e+04 1.647e-09
 87.31534   -253.8 1.223e+04 1.652e-09
 87.32521   -253.5 1.176e+04 1.319e-09
 87.33678   -253.2 1.176e+04 1.330e-09
 87.35654   -253.0 1.174e+04 1.330e-09
 87.37630   -252.8 1.164e+04 1.290e-09
 87.39204   -252.5 1.148e+04 1.206e-09
 87.40192   -252.0 1.148e+04 1.153e-09
 87.41581   -251.8 1.133e+04 1.088e-09
 87.43557   -251.5 1.115e+04 1.009e-09
 87.45533   -251.2 1.097e+04 9.226e-10
 87.47509   -250.9 1.079e+04 8.350e-10
 87.49485   -250.7 1.060e+04 7.470e-10
 87.51461   -250.4 1.036e+04 6.594e-10
 87.53369   -249.8 1.010e+04 5.708e-10
 87.54357   -250.0 1.011e+04 5.747e-10
 87.55099   -249.2 9.864e+03 4.923e-10
 87.56087   -248.9 9.895e+03 5.094e-10
 87.57388   -248.0 9.681e+03 4.387e-10
 87.59364   -247.4 9.574e+03 3.965e-10
 87.62337   -247.6 9.512e+03 3.653e-10
 87.66299   -247.6 9.288e+03 3.071e-10
 87.70026   -246.9 8.928e+03 2.411e-10
 87.72002   -246.5 9.147e+03 2.807e-10
 87.74202   -245.5 8.802e+03 2.235e-10
 87.76212   -244.2 8.569e+03 1.860e-10
 87.78188   -244.9 8.456e+03 1.762e-10
 87.82106   -243.7 8.307e+03 1.487e-10
 87.86057   -242.5 8.285e+03 1.381e-10
 87.90009   -241.4 8.284e+03 1.361e-10
 87.93961   -240.3 8.305e+03 1.367e-10
 87.97912   -239.4 8.466e+03 1.506e-10
 88.01815   -238.5 8.668e+03 1.767e-10
 88.03791   -238.7 8.782e+03 1.779e-10
 88.05816   -237.9 8.921e+03 2.026e-10
 88.09767   -237.1 8.951e+03 2.161e-10
 88.13719   -236.2 8.942e+03 2.192e-10
 88.17671   -235.2 8.928e+03 2.196e-10
 88.19883   -234.0 8.915e+03 2.199e-10
 88.21859   -234.7 8.868e+03 2.218e-10
 88.25574   -233.7 9.123e+03 2.707e-10
 88.29526   -232.9 9.675e+03 3.838e-10
 88.33477   -232.1 1.038e+04 5.854e-10
 88.35581   -231.3 1.109e+04 8.790e-10
 88.37557   -232.0 1.102e+04 8.104e-10
 88.41381   -231.3 1.157e+04 1.138e-09
 88.45332   -230.6 1.193e+04 1.418e-09
 88.49284   -230.0 1.211e+04 1.529e-09
 88.53236   -229.4 1.218e+04 1.552e-09
 88.57187   -228.8 1.222e+04 1.553e-09
 88.61139   -228.2 1.228e+04 1.521e-09
 88.63555   -227.8 1.237e+04 1.514e-09
 88.65531   -228.9 1.165e+04 1.004e-09
 88.67370   -228.9 1.191e+04 1.041e-09
 88.69346   -231.1 1.266e+04 1.648e-09
 88.72994   -231.0 1.279e+04 1.835e-09
 88.76946   -230.6 1.281e+04 1.874e-09
 88.80898   -229.9 1.276e+04 1.815e-09
 88.83255   -227.8 1.263e+04 1.817e-09
 88.84234   -228.7 1.282e+04 1.756e-09
 88.85371   -228.4 1.290e+04 1.699e-09
 88.86359   -230.3 1.286e+04 1.744e-09
 88.87793   -230.6 1.326e+04 1.814e-09
 88.89769   -231.5 1.407e+04 2.173e-09
 88.91745   -232.5 1.493e+04 2.971e-09
 88.93721   -233.5 1.556e+04 3.923e-09
 88.95697   -234.6 1.582e+04 4.586e-09
 88.97673   -235.8 1.585e+04 4.737e-09
 88.99141   -237.0 1.560e+04 4.601e-09
 89.00128   -238.2 1.463e+04 3.105e-09
 89.01624   -239.3 1.385e+04 2.304e-09
 89.03600   -240.4 1.292e+04 1.613e-09
 89.05576   -241.5 1.206e+04 1.164e-09
 89.07206   -242.3 1.144e+04 9.131e-10
 89.08194   -242.7 1.140e+04 9.184e-10
 89.09528   -242.9 1.113e+04 7.957e-10
 89.11504   -243.0 1.095e+04 7.179e-10
 89.13479   -242.8 1.081e+04 6.583e-10
 89.15035   -242.4 1.070e+04 6.090e-10
 89.16023   -242.7 1.067e+04 5.642e-10
 89.17431   -242.2 1.059e+04 5.372e-10
 89.19407   -241.7 1.051e+04 5.118e-10
 89.21383   -241.2 1.043e+04 4.883e-10
 89.23359   -240.6 1.036e+04 4.686e-10
 89.25334   -239.9 1.033e+04 4.565e-10
 89.27310   -239.3 1.032e+04 4.531e-10
 89.29042   -238.7 1.032e+04 4.528e-10
 89.30030   -239.1 1.020e+04 4.596e-10
 89.30930   -238.7 1.025e+04 4.825e-10
 89.31918   -238.6 1.023e+04 4.844e-10
 89.33238   -238.3 1.035e+04 5.320e-10
 89.35214   -237.9 1.051e+04 5.947e-10
 89.37189   -237.5 1.070e+04 6.729e-10
 89.39165   -237.3 1.094e+04 7.657e-10
 89.41141   -237.1 1.120e+04 8.659e-10
 89.43117   -237.1 1.145e+04 9.615e-10
 89.45093   -237.3 1.166e+04 1.034e-09
 89.46825   -238.0 1.175e+04 1.065e-09
 89.47813   -237.7 1.181e+04 1.080e-09
 89.49044   -238.6 1.184e+04 1.089e-09
 89.50878   -239.6 1.182e+04 1.075e-09
 89.51866   -240.9 1.178e+04 1.044e-09
 89.52996   -241.9 1.174e+04 1.019e-09
 89.54972   -242.9 1.164e+04 9.677e-10
 89.56948   -243.9 1.151e+04 9.010e-10
 89.58924   -245.0 1.136e+04 8.263e-10
 89.60900   -246.0 1.119e+04 7.489e-10
 89.62720   -246.9 1.102e+04 6.754e-10
 89.63708   -246.9 1.108e+04 6.884e-10
 89.64851   -247.6 1.090e+04 6.173e-10
 89.66827   -248.2 1.077e+04 5.618e-10
 89.68803   -248.6 1.068e+04 5.216e-10
 89.70779   -248.9 1.063e+04 4.947e-10
 89.72713   -249.0 1.062e+04 4.820e-10
 89.73701   -249.0 1.061e+04 4.815e-10
 89.74730   -249.2 1.061e+04 4.774e-10
 89.76706   -249.4 1.062e+04 4.770e-10
 89.78615   -249.6 1.075e+04 4.843e-10
 89.79603   -249.2 1.066e+04 4.717e-10
 89.80658   -249.5 1.085e+04 4.965e-10
 89.82634   -249.9 1.109e+04 5.397e-10
 89.84610   -250.3 1.134e+04 5.935e-10
 89.87583   -251.1 1.163e+04 6.693e-10
 89.91545   -252.0 1.188e+04 7.899e-10
 89.94529   -252.3 1.189e+04 8.214e-10
 89.95577   -250.1 1.169e+04 7.033e-10
 89.96544   -250.1 1.115e+04 5.013e-10
 89.99448   -250.4 1.114e+04 4.949e-10
 90.03400   -250.3 1.096e+04 4.425e-10
 90.07351   -250.0 1.063e+04 3.729e-10
 90.11303   -248.7 1.027e+04 3.130e-10
 90.15255   -247.0 1.002e+04 2.739e-10
 90.19206   -245.4 9.977e+03 2.563e-10
 90.23158   -244.1 9.982e+03 2.527e-10
 90.26319   -243.2 1.005e+04 2.545e-10
 90.28294   -242.5 1.030e+04 2.791e-10
 90.31061   -242.2 1.061e+04 3.416e-10
 90.35013   -242.1 1.092e+04 4.228e-10
 90.38240   -242.3 1.123e+04 5.269e-10
 90.40215   -242.3 1.074e+04 3.498e-10
 90.42916   -242.9 1.103e+04 4.569e-10
 90.46868   -243.4 1.119e+04 6.204e-10
 90.50820   -243.9 1.127e+04 8.421e-10
 90.54771   -245.1 1.198e+04 1.127e-09
 90.57725   -247.6 1.290e+04 1.468e-09
 90.59077   -253.0 1.541e+04 1.675e-09
 90.60065   -252.1 1.369e+04 1.553e-09
 90.61044   -259.3 1.780e+04 2.141e-09
 90.62032   -259.0 1.740e+04 2.473e-09
 90.63643   -265.4 1.989e+04 6.289e-09
 90.65619   -270.2 2.075e+04 1.309e-08
 90.67595   -274.2 2.085e+04 1.827e-08
 90.69571   -278.0 2.073e+04 1.921e-08
 90.71547   -281.2 1.940e+04 1.593e-08
 90.73522   -284.4 1.732e+04 8.500e-09
 90.74971   -287.4 1.476e+04 3.884e-09
 90.75959   -285.0 1.581e+04 5.172e-09
 90.77474   -287.5 1.327e+04 2.440e-09
 90.79450   -289.2 1.157e+04 1.461e-09
 90.81426   -289.7 1.100e+04 1.109e-09
 90.82879   -289.7 1.083e+04 9.515e-10
 90.83867   -289.0 1.081e+04 9.530e-10
 90.85377   -288.7 1.061e+04 8.618e-10
 90.87353   -288.0 1.035e+04 7.482e-10
 90.89329   -287.1 1.010e+04 6.289e-10
 90.90866   -286.0 9.895e+03 5.262e-10
 90.91854   -285.1 9.891e+03 5.255e-10
 90.94278   -283.4 9.738e+03 4.567e-10
 90.98240   -283.1 9.697e+03 4.257e-10
 91.02192   -282.5 9.607e+03 3.781e-10
 91.06143   -282.0 9.484e+03 3.224e-10
 91.10095   -281.6 9.341e+03 2.688e-10
 91.14047   -281.4 9.188e+03 2.261e-10
 91.17998   -281.4 9.065e+03 1.999e-10
 91.21687   -281.3 9.011e+03 1.909e-10
 91.23663   -279.9 9.012e+03 1.965e-10
 91.25582   -280.1 8.997e+03 1.930e-10
 91.27558   -280.0 8.871e+03 1.847e-10
 91.29853   -280.2 8.914e+03 1.886e-10
 91.33805   -280.7 9.148e+03 2.179e-10
 91.37757   -281.3 9.409e+03 2.614e-10
 91.41708   -282.2 9.584e+03 2.969e-10
 91.45660   -283.0 9.641e+03 3.103e-10
 91.49612   -283.7 9.648e+03 3.122e-10
 91.53477   -283.9 9.641e+03 3.104e-10
 91.55453   -283.7 9.558e+03 2.726e-10
 91.57515   -283.8 9.577e+03 2.722e-10
 91.61467   -283.8 9.619e+03 2.673e-10
 91.65418   -283.4 9.617e+03 2.560e-10
 91.69253   -282.4 9.586e+03 2.454e-10
 91.71229   -282.3 9.522e+03 2.605e-10
 91.73322   -280.8 9.502e+03 2.470e-10
 91.77273   -279.1 9.522e+03 2.414e-10
 91.81225   -277.2 9.529e+03 2.405e-10
 91.85177   -275.3 9.542e+03 2.403e-10
 91.87243   -273.3 9.543e+03 2.403e-10
 91.89218   -273.7 9.732e+03 2.830e-10
 91.93080   -271.7 9.768e+03 2.867e-10
 91.97032   -269.6 9.795e+03 2.952e-10
 92.00984   -267.6 9.823e+03 3.101e-10
 92.04935   -265.5 9.896e+03 3.342e-10
 92.08887   -263.3 1.002e+04 3.739e-10
 92.12839   -261.1 1.015e+04 4.315e-10
 92.14900   -258.7 1.027e+04 4.934e-10
 92.16876   -259.1 1.027e+04 4.832e-10
 92.19032   -256.5 1.025e+04 4.995e-10
 92.21008   -257.3 1.020e+04 4.810e-10
 92.24694   -254.6 1.015e+04 4.357e-10
 92.28645   -251.9 1.021e+04 4.055e-10
 92.32597   -249.5 1.026e+04 3.969e-10
 92.36549   -247.5 1.040e+04 3.948e-10
 92.40500   -246.1 1.101e+04 4.511e-10
 92.44452   -245.1 1.149e+04 6.366e-10
 92.48404   -244.1 1.191e+04 9.421e-10
 92.50822   -243.2 1.228e+04 1.347e-09
 92.52798   -243.5 1.214e+04 1.615e-09
 92.56307   -242.2 1.231e+04 1.822e-09
 92.58562   -241.1 1.261e+04 2.170e-09
 92.59540   -241.2 1.322e+04 2.224e-09
 92.61227   -240.7 1.357e+04 2.272e-09
 92.63203   -240.3 1.409e+04 2.291e-09
 92.65179   -240.2 1.470e+04 2.266e-09
 92.66697   -240.3 1.528e+04 2.215e-09
 92.67685   -241.4 1.579e+04 2.411e-09
 92.69130   -242.0 1.637e+04 2.560e-09
 92.71106   -242.6 1.642e+04 2.716e-09
 92.73082   -243.1 1.633e+04 2.759e-09
 92.75058   -243.3 1.562e+04 2.790e-09
 92.77034   -243.2 1.468e+04 2.625e-09
 92.79010   -242.7 1.382e+04 2.313e-09
 92.80388   -241.9 1.311e+04 1.939e-09
 92.81376   -242.7 1.248e+04 1.676e-09
 92.82592   -241.8 1.204e+04 1.257e-09
 92.83580   -241.6 1.177e+04 1.199e-09
 92.84937   -240.8 1.147e+04 8.383e-10
 92.86913   -240.0 1.125e+04 5.876e-10
 92.88889   -239.2 1.110e+04 4.263e-10
 92.90865   -238.4 1.102e+04 3.327e-10
 92.92841   -237.5 1.095e+04 2.845e-10
 92.94816   -236.7 1.089e+04 2.605e-10
 92.96792   -235.9 1.082e+04 2.451e-10
 92.98487   -234.6 1.075e+04 2.369e-10
 92.99475   -234.7 1.072e+04 2.316e-10
 93.00744   -233.1 1.071e+04 2.338e-10
 93.02233   -231.5 1.073e+04 2.405e-10
 93.04219   -233.1 1.032e+04 1.912e-10
 93.07679   -230.8 1.017e+04 1.825e-10
 93.11631   -228.7 1.010e+04 1.749e-10
 93.14401   -226.7 1.013e+04 1.694e-10
 93.16377   -226.5 1.002e+04 1.900e-10
 93.19534   -224.4 1.005e+04 1.983e-10
 93.23486   -222.3 1.017e+04 2.061e-10
 93.27437   -220.4 1.041e+04 2.169e-10
 93.31389   -219.3 1.083e+04 2.349e-10
 93.35341   -219.0 1.135e+04 2.714e-10
 93.39292   -219.2 1.191e+04 3.577e-10
 93.43244   -221.0 1.236e+04 5.406e-10
 93.45914   -223.0 1.251e+04 8.273e-10
 93.46885   -223.0 1.206e+04 7.653e-10
 93.48157   -223.5 1.247e+04 1.448e-09
 93.50140   -224.3 1.239e+04 1.534e-09
 93.52116   -224.5 1.235e+04 1.546e-09
 93.54092   -224.5 1.210e+04 1.546e-09
 93.56067   -224.3 1.176e+04 1.439e-09
 93.58043   -223.7 1.146e+04 1.243e-09
 93.60019   -223.0 1.123e+04 1.048e-09
 93.61995   -222.3 1.105e+04 8.875e-10
 93.63054   -221.5 1.092e+04 7.657e-10
 93.64042   -222.1 1.100e+04 7.161e-10
 93.65947   -221.2 1.081e+04 6.476e-10
 93.67730   -220.1 1.066e+04 5.978e-10
 93.68718   -220.0 1.051e+04 5.597e-10
 93.69898   -218.9 1.040e+04 5.068e-10
 93.71874   -217.6 1.030e+04 4.527e-10
 93.73850   -216.3 1.023e+04 4.073e-10
 93.75826   -215.2 1.017e+04 3.711e-10
 93.77802   -214.0 1.013e+04 3.384e-10
 93.78949   -212.7 1.009e+04 3.194e-10
 93.79937   -212.5 1.017e+04 3.538e-10
 93.82751   -210.9 1.029e+04 3.583e-10
 93.86712   -208.9 1.033e+04 3.444e-10
 93.89585   -206.0 1.034e+04 3.395e-10
 93.91561   -206.4 1.015e+04 3.154e-10
 93.94616   -203.8 1.023e+04 3.473e-10
 93.98567   -201.2 1.040e+04 3.984e-10
 94.02519   -198.7 1.057e+04 4.499e-10
 94.05473   -196.6 1.096e+04 5.706e-10
 94.07439   -195.2 1.104e+04 6.074e-10
 94.09415   -193.8 1.116e+04 6.479e-10
 94.10738   -192.4 1.125e+04 6.776e-10
 94.11726   -192.3 1.184e+04 1.129e-09
 94.12389   -191.0 1.198e+04 1.207e-09
 94.13377   -191.2 1.187e+04 1.159e-09
 94.15343   -189.9 1.198e+04 1.179e-09
 94.17318   -188.6 1.210e+04 1.192e-09
 94.19294   -187.5 1.223e+04 1.205e-09
 94.21270   -186.5 1.238e+04 1.220e-09
 94.23246   -185.4 1.252e+04 1.247e-09
 94.25222   -184.4 1.268e+04 1.289e-09
 94.26633   -183.4 1.282e+04 1.346e-09
 94.27621   -183.4 1.325e+04 2.634e-09
 94.29173   -182.3 1.331e+04 2.761e-09
 94.31149   -181.1 1.336e+04 2.861e-09
 94.33125   -179.9 1.339e+04 2.899e-09
 94.34225   -178.8 1.340e+04 2.900e-09
 94.35213   -179.0 1.308e+04 2.143e-09
 94.37077   -177.7 1.294e+04 2.049e-09
 94.39053   -176.5 1.272e+04 1.895e-09
 94.41028   -175.3 1.245e+04 1.699e-09
 94.42528   -174.1 1.213e+04 1.481e-09
 94.43516   -173.4 1.246e+04 1.969e-09
 94.44980   -172.2 1.214e+04 1.614e-09
 94.46956   -170.9 1.179e+04 1.298e-09
 94.48932   -169.7 1.142e+04 1.034e-09
 94.50908   -168.5 1.106e+04 8.226e-10
 94.52884   -167.2 1.072e+04 6.589e-10
 94.54859   -165.8 1.042e+04 5.343e-10
 94.56060   -164.4 1.015e+04 4.394e-10
 94.57048   -165.0 9.854e+03 3.652e-10
 94.58423   -163.5 9.706e+03 3.237e-10
 94.59411   -163.3 9.849e+03 3.442e-10
 94.60787   -161.7 9.738e+03 3.093e-10
 94.62763   -160.3 9.713e+03 2.951e-10
 94.65736   -158.9 9.712e+03 2.791e-10
 94.69698   -156.2 9.611e+03 2.552e-10
 94.73349   -153.4 9.598e+03 2.495e-10
 94.75315   -153.0 9.570e+03 2.769e-10
 94.76594   -151.7 9.662e+03 2.784e-10
 94.77896   -151.0 9.916e+03 2.918e-10
 94.78884   -152.7 1.000e+04 2.912e-10
 94.80545   -152.9 1.041e+04 3.687e-10
 94.82521   -153.5 1.102e+04 5.506e-10
 94.84497   -154.3 1.198e+04 9.740e-10
 94.86473   -154.7 1.317e+04 1.825e-09
 94.88449   -154.6 1.447e+04 3.340e-09
 94.90212   -154.4 1.570e+04 5.439e-09
 94.91200   -153.5 1.563e+04 5.161e-09
 94.92400   -153.6 1.676e+04 7.410e-09
 94.94376   -154.8 1.760e+04 9.191e-09
 94.96352   -156.9 1.793e+04 9.842e-09
 94.98328   -159.4 1.796e+04 9.913e-09
 94.99732   -162.3 1.764e+04 8.872e-09
 95.00720   -165.1 1.683e+04 7.054e-09
 95.02279   -168.4 1.577e+04 4.954e-09
 95.04255   -171.9 1.442e+04 3.192e-09
 95.06107   -175.2 1.299e+04 1.989e-09
 95.07095   -175.1 1.310e+04 1.988e-09
 95.08207   -178.4 1.146e+04 1.159e-09
 95.10183   -180.8 1.033e+04 7.372e-10
 95.12159   -182.5 1.012e+04 5.677e-10
 95.14135   -184.0 1.016e+04 5.357e-10
 95.16110   -186.2 1.160e+04 5.437e-10
 95.18086   -188.8 1.357e+04 7.361e-10
 95.20062   -190.9 1.440e+04 1.107e-09
 95.21567   -192.2 1.428e+04 1.629e-09
 95.22519   -191.9 1.401e+04 1.350e-09
 95.22990   -194.4 1.373e+04 2.745e-09
 95.24014   -194.4 1.338e+04 3.113e-09
 95.25990   -194.1 1.333e+04 3.354e-09
 95.27965   -193.8 1.346e+04 3.460e-09
 95.29941   -193.7 1.366e+04 3.461e-09
 95.31917   -193.8 1.383e+04 3.430e-09
 95.33893   -194.3 1.401e+04 3.348e-09
 95.35869   -195.3 1.424e+04 3.027e-09
 95.37845   -196.5 1.395e+04 2.712e-09
 95.38885   -197.6 1.347e+04 2.458e-09
 95.39873   -198.8 1.279e+04 2.079e-09
 95.41796   -199.1 1.256e+04 2.052e-09
 95.43403   -199.1 1.243e+04 2.041e-09
 95.44391   -198.4 1.231e+04 1.764e-09
 95.45748   -198.5 1.222e+04 1.795e-09
 95.47724   -198.5 1.212e+04 1.823e-09
 95.49700   -198.3 1.205e+04 1.770e-09
 95.51675   -198.2 1.195e+04 1.683e-09
 95.53651   -198.0 1.185e+04 1.565e-09
 95.54780   -198.0 1.172e+04 1.417e-09
 95.55768   -198.0 1.158e+04 1.348e-09
 95.57603   -197.9 1.138e+04 1.191e-09
 95.59579   -197.8 1.115e+04 1.018e-09
 95.61555   -197.7 1.089e+04 8.512e-10
 95.63531   -197.5 1.063e+04 7.037e-10
 95.65239   -197.3 1.040e+04 5.847e-10
 95.66226   -197.0 1.061e+04 6.980e-10
 95.67482   -196.8 1.035e+04 5.673e-10
 95.69458   -196.7 1.015e+04 4.765e-10
 95.70674   -196.6 1.002e+04 4.180e-10
 95.71662   -196.6 1.003e+04 4.398e-10
 95.73410   -196.5 9.942e+03 4.202e-10
 95.75386   -196.5 9.913e+03 4.167e-10
 95.77361   -196.6 9.924e+03 4.175e-10
 95.79337   -197.0 1.008e+04 4.468e-10
 95.81313   -197.6 1.030e+04 5.144e-10
 95.83289   -198.2 1.053e+04 6.073e-10
 95.85265   -198.7 1.076e+04 7.197e-10
 95.86569   -198.9 1.099e+04 8.396e-10
 95.87391   -199.6 1.150e+04 1.081e-09
 95.88062   -200.1 1.178e+04 1.191e-09
 95.89216   -200.2 1.176e+04 1.236e-09
 95.91192   -200.2 1.166e+04 1.234e-09
 95.93168   -199.9 1.135e+04 1.138e-09
 95.95144   -199.6 1.099e+04 9.607e-10
 95.97120   -199.1 1.055e+04 7.569e-10
 95.99096   -198.4 1.007e+04 5.665e-10
 96.01071   -197.6 9.625e+03 4.233e-10
 96.02464   -196.8 9.329e+03 3.421e-10
 96.04450   -197.2 9.272e+03 3.495e-10
 96.07941   -196.7 9.052e+03 2.795e-10
 96.09917   -197.2 8.874e+03 2.295e-10
 96.11958   -195.7 8.545e+03 1.714e-10
 96.15910   -194.1 8.399e+03 1.427e-10
 96.19861   -192.7 8.382e+03 1.354e-10
 96.23813   -191.9 8.389e+03 1.348e-10
 96.27765   -191.8 8.440e+03 1.383e-10
 96.31717   -191.9 8.855e+03 1.883e-10
 96.34273   -192.6 9.596e+03 3.149e-10
 96.36249   -191.7 9.388e+03 2.976e-10
 96.39620   -192.3 9.993e+03 4.447e-10
 96.43572   -193.6 1.062e+04 6.309e-10
 96.47523   -195.2 1.117e+04 8.108e-10
 96.51475   -196.9 1.156e+04 9.352e-10
 96.53579   -197.9 1.179e+04 1.028e-09
 96.55555   -199.2 1.227e+04 1.272e-09
 96.58381   -200.3 1.207e+04 1.098e-09
 96.60347   -202.1 1.191e+04 9.172e-10
 96.62322   -204.3 1.149e+04 7.107e-10
 96.64298   -206.8 1.110e+04 5.774e-10
 96.66043   -209.4 1.078e+04 5.208e-10
 96.67031   -209.4 1.117e+04 6.459e-10
 96.68250   -211.9 1.097e+04 6.249e-10
 96.70226   -214.1 1.090e+04 6.219e-10
 96.72202   -215.9 1.087e+04 6.245e-10
 96.74178   -217.6 1.080e+04 6.534e-10
 96.75405   -219.0 1.073e+04 6.935e-10
 96.76392   -219.5 1.112e+04 8.063e-10
 96.78129   -220.4 1.110e+04 8.505e-10
 96.80105   -220.9 1.111e+04 8.917e-10
 96.81938   -221.3 1.116e+04 9.321e-10
 96.82926   -222.1 1.137e+04 1.019e-09
 96.84057   -222.4 1.141e+04 1.059e-09
 96.86033   -222.7 1.144e+04 1.094e-09
 96.88008   -223.0 1.149e+04 1.134e-09
 96.89984   -223.3 1.158e+04 1.187e-09
 96.91960   -223.7 1.171e+04 1.264e-09
 96.93936   -224.2 1.187e+04 1.358e-09
 96.95912   -224.7 1.199e+04 1.442e-09
 96.97250   -225.7 1.209e+04 1.518e-09
 96.98183   -225.3 1.236e+04 1.657e-09
 96.98821   -225.6 1.245e+04 1.783e-09
 96.99863   -226.1 1.291e+04 2.157e-09
 97.01839   -226.8 1.329e+04 2.543e-09
 97.03815   -227.6 1.350e+04 2.784e-09
 97.05791   -228.5 1.354e+04 2.834e-09
 97.07767   -229.3 1.347e+04 2.813e-09
 97.09743   -229.7 1.311e+04 2.511e-09
 97.11718   -229.9 1.258e+04 2.029e-09
 97.13694   -230.1 1.200e+04 1.583e-09
 97.14716   -230.2 1.142e+04 1.219e-09
 97.15704   -230.2 1.202e+04 1.715e-09
 97.17646   -230.2 1.138e+04 1.276e-09
 97.19076   -230.2 1.077e+04 9.380e-10
 97.20064   -230.3 1.101e+04 1.088e-09
 97.21598   -229.9 1.042e+04 7.929e-10
 97.23574   -229.4 9.893e+03 5.765e-10
 97.26547   -228.7 9.302e+03 3.937e-10
 97.29642   -228.3 9.075e+03 3.414e-10
 97.31618   -227.8 9.232e+03 4.104e-10
 97.34460   -227.3 9.086e+03 3.704e-10
 97.38412   -226.3 8.987e+03 3.488e-10
 97.40931   -225.4 8.975e+03 3.460e-10
 97.42907   -225.1 9.006e+03 3.521e-10
 97.46315   -224.2 9.069e+03 3.627e-10
 97.50267   -223.5 9.259e+03 3.986e-10
 97.54219   -222.9 9.439e+03 4.364e-10
 97.58170   -222.5 9.557e+03 4.610e-10
 97.61432   -222.0 9.601e+03 4.685e-10
 97.63408   -222.7 9.865e+03 5.357e-10
 97.66074   -222.5 9.871e+03 5.356e-10
 97.70025   -222.2 9.771e+03 4.909e-10
 97.73977   -221.7 9.608e+03 4.266e-10
 97.77929   -221.2 9.530e+03 3.948e-10
 97.81880   -220.7 9.521e+03 3.901e-10
 97.84602   -220.4 9.716e+03 4.164e-10
 97.86578   -219.4 9.696e+03 4.163e-10
 97.89784   -219.4 1.008e+04 5.142e-10
 97.93221   -219.4 1.046e+04 6.503e-10
 97.95197   -219.8 1.044e+04 6.554e-10
 97.97687   -220.0 1.058e+04 7.038e-10
 98.00641   -220.4 1.071e+04 7.293e-10
 98.02607   -220.9 1.071e+04 7.287e-10
 98.04583   -221.2 1.070e+04 7.298e-10
 98.06418   -221.6 1.071e+04 7.334e-10
 98.07406   -220.9 1.066e+04 7.292e-10
 98.08535   -221.1 1.068e+04 7.296e-10
 98.10085   -221.4 1.072e+04 7.326e-10
 98.11073   -221.4 1.054e+04 6.757e-10
 98.12486   -221.7 1.068e+04 6.890e-10
 98.14462   -222.0 1.091e+04 7.254e-10
 98.16438   -222.3 1.128e+04 8.026e-10
 98.18414   -222.6 1.178e+04 9.491e-10
 98.20390   -222.9 1.231e+04 1.181e-09
 98.22365   -223.1 1.269e+04 1.456e-09
 98.24341   -223.1 1.290e+04 1.771e-09
 98.25979   -223.1 1.294e+04 1.963e-09
 98.26967   -223.9 1.365e+04 3.189e-09
 98.28254   -223.5 1.357e+04 3.288e-09
 98.29242   -222.3 1.333e+04 2.482e-09
 98.30269   -222.0 1.318e+04 2.661e-09
 98.32245   -221.3 1.300e+04 2.713e-09
 98.34221   -220.6 1.254e+04 2.499e-09
 98.36196   -219.9 1.229e+04 2.195e-09
 98.38172   -219.2 1.193e+04 1.909e-09
 98.40148   -218.5 1.162e+04 1.606e-09
 98.41874   -217.8 1.132e+04 1.330e-09
 98.42862   -217.9 1.116e+04 1.268e-09
 98.44100   -217.3 1.088e+04 1.003e-09
 98.46076   -216.8 1.065e+04 7.875e-10
 98.48051   -216.3 1.045e+04 6.230e-10
 98.50027   -215.9 1.028e+04 5.050e-10
 98.51077   -215.6 1.013e+04 4.266e-10
 98.52065   -214.9 1.039e+04 5.814e-10
 98.53979   -214.6 1.027e+04 4.943e-10
 98.55955   -214.3 1.017e+04 4.379e-10
 98.57769   -214.1 1.008e+04 4.077e-10
 98.58757   -214.2 1.006e+04 3.813e-10
 98.59906   -213.9 1.002e+04 3.773e-10
 98.61882   -213.7 9.999e+03 3.800e-10
 98.63858   -213.5 1.000e+04 4.036e-10
 98.65834   -213.3 1.007e+04 4.315e-10
 98.67810   -213.2 1.015e+04 4.666e-10
 98.69786   -212.9 1.026e+04 5.067e-10
 98.71761   -212.7 1.038e+04 5.522e-10
 98.72913   -212.4 1.051e+04 6.023e-10
 98.73828   -212.5 1.086e+04 6.351e-10
 98.74652   -213.0 1.104e+04 6.930e-10
 98.75713   -212.7 1.114e+04 7.503e-10
 98.77689   -212.4 1.122e+04 8.124e-10
 98.79665   -212.1 1.129e+04 8.800e-10
 98.81641   -211.8 1.139e+04 9.568e-10
 98.83616   -211.4 1.152e+04 1.044e-09
 98.85592   -211.0 1.168e+04 1.134e-09
 98.87568   -210.7 1.183e+04 1.215e-09
 98.89544   -210.3 1.198e+04 1.290e-09
 98.90547   -210.0 1.216e+04 1.378e-09
 98.91535   -210.3 1.253e+04 1.801e-09
 98.93496   -209.7 1.278e+04 2.007e-09
 98.94749   -209.0 1.305e+04 2.239e-09
 98.95736   -209.7 1.303e+04 2.046e-09
 98.97447   -209.0 1.322e+04 2.137e-09
 98.99423   -208.3 1.342e+04 2.221e-09
 99.01399   -207.6 1.366e+04 2.245e-09
 99.03375   -207.0 1.376e+04 2.239e-09
 99.05351   -206.3 1.388e+04 2.171e-09
 99.06441   -205.6 1.393e+04 2.034e-09
 99.07429   -205.6 1.435e+04 3.234e-09
 99.09302   -204.8 1.441e+04 3.076e-09
 99.11278   -204.0 1.436e+04 2.809e-09
 99.13254   -203.1 1.428e+04 2.495e-09
 99.15230   -202.3 1.418e+04 2.177e-09
 99.16584   -201.4 1.405e+04 1.893e-09
 99.17572   -202.7 1.329e+04 1.243e-09
 99.19182   -202.0 1.306e+04 1.143e-09
 99.21157   -201.3 1.286e+04 1.090e-09
 99.22336   -200.5 1.273e+04 1.081e-09
 99.23324   -200.3 1.345e+04 1.873e-09
 99.25109   -199.6 1.338e+04 1.894e-09
 99.27085   -198.9 1.337e+04 2.000e-09
 99.29061   -198.3 1.353e+04 2.156e-09
 99.31037   -197.9 1.382e+04 2.342e-09
 99.33012   -197.9 1.417e+04 2.536e-09
 99.34988   -197.9 1.452e+04 2.702e-09
 99.36964   -198.3 1.481e+04 2.790e-09
 99.38231   -198.8 1.492e+04 2.802e-09
 99.38699   -199.8 1.607e+04 5.429e-09
 99.39408   -199.3 1.541e+04 4.304e-09
 99.40916   -199.5 1.544e+04 4.318e-09
 99.42892   -199.5 1.546e+04 4.192e-09
 99.44868   -199.1 1.518e+04 3.796e-09
 99.46843   -198.3 1.478e+04 3.309e-09
 99.48819   -197.3 1.437e+04 2.823e-09
 99.50795   -196.3 1.398e+04 2.400e-09
 99.52771   -195.2 1.361e+04 2.054e-09
 99.54126   -193.9 1.329e+04 1.779e-09
 99.55114   -193.9 1.417e+04 2.227e-09
 99.56723   -192.7 1.391e+04 1.868e-09
 99.58698   -191.4 1.366e+04 1.602e-09
 99.60255   -190.1 1.342e+04 1.391e-09
 99.61243   -189.7 1.347e+04 1.421e-09
 99.62650   -188.4 1.322e+04 1.230e-09
 99.64626   -187.0 1.299e+04 1.079e-09
 99.66602   -185.8 1.279e+04 9.573e-10
 99.68578   -184.5 1.260e+04 8.589e-10
 99.70021   -183.2 1.243e+04 7.835e-10
 99.71009   -183.2 1.307e+04 9.299e-10
 99.72529   -181.9 1.288e+04 8.692e-10
 99.74505   -180.6 1.273e+04 8.361e-10
 99.76481   -179.3 1.264e+04 8.259e-10
 99.78457   -178.0 1.262e+04 8.247e-10
 99.80433   -176.8 1.255e+04 8.583e-10
 99.82091   -175.8 1.264e+04 1.003e-09
 99.83079   -175.7 1.257e+04 9.990e-10
 99.84384   -174.7 1.278e+04 1.177e-09
 99.85916   -173.7 1.301e+04 1.399e-09
 99.86903   -173.6 1.317e+04 1.413e-09
 99.88336   -172.6 1.343e+04 1.653e-09
 99.90312   -171.9 1.385e+04 1.998e-09
 99.92288   -171.3 1.434e+04 2.504e-09
 99.94264   -170.7 1.484e+04 3.177e-09
 99.96239   -170.3 1.525e+04 3.988e-09
 99.98215   -169.8 1.552e+04 4.825e-09
100.00191   -169.4 1.561e+04 5.447e-09
