# Columns:
#   distance along LOS (in CHIMPs)
#   peculiar velocity  (in km/s)
#   temperature (K)
#   HI number density
# pos=(128.144,200.429,68.2889), angles=(1.28948,0.0872724)
  0.00888    -17.8 9.651e+03 2.087e-10
  0.03818    -19.3 9.285e+03 1.561e-10
  0.07899    -20.2 9.238e+03 1.682e-10
  0.10929    -20.3 9.201e+03 1.959e-10
  0.12632    -20.1 9.403e+03 2.566e-10
  0.13683    -19.4 9.424e+03 2.513e-10
  0.16062    -19.4 9.316e+03 2.442e-10
  0.20144    -19.3 9.394e+03 2.626e-10
  0.24087    -19.8 9.824e+03 3.560e-10
  0.26128    -19.9 9.859e+03 3.586e-10
  0.27277    -20.6 1.030e+04 4.820e-10
  0.29308    -21.6 1.083e+04 6.629e-10
  0.31349    -23.1 1.145e+04 1.039e-09
  0.32687    -22.7 1.168e+04 1.490e-09
  0.33708    -22.4 1.142e+04 1.270e-09
  0.35431    -21.7 1.142e+04 1.275e-09
  0.36550    -21.1 1.142e+04 1.173e-09
  0.37571    -20.4 1.177e+04 1.538e-09
  0.39266    -20.4 1.168e+04 1.242e-09
  0.40286    -20.4 1.154e+04 1.016e-09
  0.41553    -24.9 1.449e+04 1.066e-09
  0.43594    -38.7 1.968e+04 2.548e-09
  0.45635    -43.7 1.651e+04 8.751e-09
  0.46865    -41.5 1.687e+04 1.706e-08
  0.47886    -40.3 1.668e+04 1.563e-08
  0.49201    -39.9 1.763e+04 1.868e-08
  0.50145    -39.2 1.810e+04 1.634e-08
  0.50655    -38.7 1.801e+04 1.419e-08
  0.51237    -39.2 1.998e+04 8.174e-09
  0.52257    -41.2 1.998e+04 5.386e-09
  0.53439    -49.0 1.696e+04 1.763e-09
  0.54464    -49.2 1.616e+04 1.340e-09
  0.55839    -56.5 1.207e+04 6.339e-10
  0.57879    -58.0 1.140e+04 5.286e-10
  0.59437    -58.9 1.107e+04 4.813e-10
  0.60458    -58.4 1.173e+04 7.891e-10
  0.61043    -59.0 1.149e+04 6.904e-10
  0.62064    -58.5 1.137e+04 6.228e-10
  0.64002    -59.1 1.129e+04 5.386e-10
  0.66043    -60.0 1.126e+04 4.663e-10
  0.67622    -61.2 1.115e+04 4.257e-10
  0.68642    -60.5 1.111e+04 3.951e-10
  0.70124    -61.2 1.115e+04 4.002e-10
  0.72165    -62.0 1.107e+04 4.239e-10
  0.74201    -62.3 1.106e+04 4.497e-10
  0.76242    -62.3 1.106e+04 5.026e-10
  0.78288    -62.5 1.103e+04 4.927e-10
  0.80789    -62.8 1.091e+04 4.342e-10
  0.82840    -61.8 1.108e+04 5.404e-10
  0.85450    -62.1 1.049e+04 3.258e-10
  0.89532    -62.2 9.954e+03 1.661e-10
  0.93613    -62.5 9.466e+03 8.670e-11
  0.95997    -61.8 9.194e+03 5.813e-11
  0.98038    -61.1 9.181e+03 5.302e-11
  1.01776    -60.3 9.043e+03 4.222e-11
  1.05231    -59.3 8.934e+03 3.640e-11
  1.07272    -59.2 9.092e+03 4.361e-11
  1.09155    -58.2 8.975e+03 3.994e-11
  1.11196    -57.2 8.972e+03 4.078e-11
  1.14021    -56.0 8.932e+03 3.997e-11
  1.18103    -54.7 8.851e+03 4.109e-11
  1.22185    -53.5 8.793e+03 4.385e-11
  1.24353    -52.1 8.770e+03 4.619e-11
  1.26394    -51.1 8.746e+03 5.245e-11
  1.30348    -49.8 8.765e+03 5.527e-11
  1.34429    -48.7 8.838e+03 5.929e-11
  1.37511    -47.9 8.940e+03 6.801e-11
  1.39552    -46.9 8.943e+03 7.612e-11
  1.42593    -46.3 8.955e+03 9.553e-11
  1.46674    -45.2 8.955e+03 1.170e-10
  1.50669    -44.1 8.957e+03 1.217e-10
  1.52709    -43.1 8.974e+03 1.343e-10
  1.53046    -42.3 9.012e+03 1.187e-10
  1.55086    -42.3 9.095e+03 1.461e-10
  1.58919    -41.9 9.162e+03 1.158e-10
  1.63001    -42.1 9.011e+03 1.053e-10
  1.65867    -41.6 8.883e+03 1.043e-10
  1.67908    -40.5 8.912e+03 1.333e-10
  1.71164    -39.5 8.811e+03 1.216e-10
  1.75246    -38.8 8.704e+03 1.040e-10
  1.79025    -38.1 8.650e+03 9.359e-11
  1.81065    -37.0 8.644e+03 9.421e-11
  1.83409    -36.4 8.687e+03 9.070e-11
  1.87491    -36.2 8.898e+03 9.700e-11
  1.91572    -36.2 8.950e+03 1.323e-10
  1.94223    -36.3 9.399e+03 1.972e-10
  1.96264    -34.6 9.214e+03 1.910e-10
  1.98819    -37.1 1.092e+04 3.318e-10
  2.00850    -38.9 1.222e+04 4.592e-10
  2.01803    -42.8 1.292e+04 1.251e-09
  2.02823    -42.4 1.307e+04 1.113e-09
  2.04818    -43.5 1.268e+04 2.207e-09
  2.06859    -42.5 1.291e+04 3.045e-09
  2.08381    -40.5 1.314e+04 3.205e-09
  2.09402    -39.9 1.311e+04 3.233e-09
  2.10940    -38.8 1.296e+04 2.354e-09
  2.12981    -40.8 1.237e+04 1.070e-09
  2.14960    -45.5 1.026e+04 5.520e-10
  2.15981    -44.5 1.045e+04 6.027e-10
  2.17063    -45.3 1.008e+04 4.963e-10
  2.19104    -46.5 9.795e+03 4.196e-10
  2.21144    -47.1 9.815e+03 4.095e-10
  2.22569    -48.7 9.609e+03 4.011e-10
  2.24620    -46.5 9.584e+03 3.954e-10
  2.28307    -47.0 9.644e+03 4.874e-10
  2.32388    -46.4 9.823e+03 5.775e-10
  2.35737    -45.8 1.003e+04 6.232e-10
  2.37777    -44.2 9.644e+03 5.076e-10
  2.40552    -44.0 9.761e+03 4.957e-10
  2.43326    -47.5 1.186e+04 7.808e-10
  2.44337    -45.2 1.105e+04 5.625e-10
  2.45594    -49.7 1.363e+04 1.162e-09
  2.46615    -52.5 1.429e+04 2.212e-09
  2.47675    -53.5 1.462e+04 4.517e-09
  2.49716    -53.3 1.549e+04 7.056e-09
  2.50915    -52.9 1.665e+04 8.817e-09
  2.51936    -52.5 1.648e+04 9.891e-09
  2.53797    -52.1 1.727e+04 1.099e-08
  2.55838    -53.7 1.862e+04 8.651e-09
  2.57494    -57.0 1.834e+04 4.197e-09
  2.58515    -54.7 1.871e+04 6.636e-09
  2.59920    -59.2 1.733e+04 2.703e-09
  2.61961    -65.5 1.315e+04 1.270e-09
  2.64001    -68.9 1.145e+04 1.049e-09
  2.65093    -71.0 1.183e+04 1.190e-09
  2.66114    -70.1 1.148e+04 1.044e-09
  2.68083    -72.9 1.273e+04 1.580e-09
  2.69502    -75.4 1.396e+04 2.648e-09
  2.70522    -76.4 1.474e+04 4.111e-09
  2.71672    -77.7 1.511e+04 5.900e-09
  2.72693    -77.7 1.546e+04 6.161e-09
  2.74205    -80.0 1.669e+04 8.396e-09
  2.76246    -84.3 1.936e+04 1.048e-08
  2.78251    -90.0 2.242e+04 1.290e-08
  2.79271    -90.4 2.256e+04 1.598e-08
  2.80328    -95.7 2.305e+04 1.707e-08
  2.82369   -100.2 2.139e+04 1.633e-08
  2.84410   -102.4 1.904e+04 1.385e-08
  2.85850   -103.0 1.740e+04 1.142e-08
  2.86871   -102.7 1.738e+04 1.151e-08
  2.88491   -102.7 1.663e+04 8.817e-09
  2.90532   -102.6 1.619e+04 6.189e-09
  2.92389   -103.0 1.557e+04 3.893e-09
  2.93265   -107.5 1.346e+04 1.692e-09
  2.93449   -109.4 1.248e+04 1.267e-09
  2.94614   -110.4 1.133e+04 9.587e-10
  2.96654   -110.6 1.095e+04 8.605e-10
  2.98695   -110.2 1.084e+04 8.341e-10
  3.00028   -109.9 1.082e+04 8.288e-10
  3.01049   -110.1 1.090e+04 8.456e-10
  3.02777   -109.8 1.097e+04 8.599e-10
  3.04818   -109.8 1.112e+04 8.813e-10
  3.06607   -110.3 1.144e+04 9.516e-10
  3.07627   -110.2 1.179e+04 1.076e-09
  3.08899   -111.4 1.225e+04 1.346e-09
  3.10940   -113.4 1.288e+04 1.891e-09
  3.12981   -115.7 1.387e+04 2.887e-09
  3.14206   -118.3 1.523e+04 4.407e-09
  3.15227   -118.5 1.597e+04 5.650e-09
  3.16296   -121.7 1.756e+04 8.242e-09
  3.17316   -126.3 2.020e+04 1.114e-08
  3.19103   -131.2 2.088e+04 1.274e-08
  3.20785   -134.9 2.067e+04 1.207e-08
  3.21800   -134.8 2.119e+04 1.370e-08
  3.23180   -138.2 2.115e+04 1.137e-08
  3.25226   -140.6 1.934e+04 6.689e-09
  3.27267   -142.9 1.691e+04 3.841e-09
  3.28384   -144.2 1.525e+04 2.572e-09
  3.29405   -144.4 1.578e+04 3.318e-09
  3.31348   -144.7 1.457e+04 2.404e-09
  3.33389   -144.8 1.356e+04 1.879e-09
  3.34963   -144.6 1.278e+04 1.521e-09
  3.35983   -144.0 1.314e+04 1.735e-09
  3.37471   -143.8 1.239e+04 1.426e-09
  3.39183   -143.4 1.186e+04 1.215e-09
  3.40203   -145.4 1.149e+04 1.036e-09
  3.41542   -144.8 1.107e+04 8.619e-10
  3.42562   -144.3 1.109e+04 8.630e-10
  3.43593   -143.7 1.072e+04 7.320e-10
  3.45634   -143.1 1.042e+04 6.372e-10
  3.47675   -142.3 1.018e+04 5.694e-10
  3.49141   -141.6 9.999e+03 5.194e-10
  3.50161   -141.3 9.985e+03 5.179e-10
  3.51756   -140.6 9.847e+03 4.863e-10
  3.53797   -139.8 9.739e+03 4.624e-10
  3.55720   -139.2 9.653e+03 4.457e-10
  3.56740   -139.0 9.671e+03 4.593e-10
  3.57879   -138.3 9.629e+03 4.527e-10
  3.59920   -137.8 9.600e+03 4.501e-10
  3.61960   -137.2 9.592e+03 4.513e-10
  3.63090   -136.6 9.544e+03 4.607e-10
  3.63428   -137.0 9.373e+03 3.816e-10
  3.64339   -136.7 9.483e+03 4.225e-10
  3.66042   -136.0 9.567e+03 4.407e-10
  3.68083   -135.8 9.657e+03 4.732e-10
  3.69898   -135.7 9.871e+03 5.423e-10
  3.70918   -135.5 9.915e+03 5.884e-10
  3.72164   -135.6 1.026e+04 7.217e-10
  3.74205   -136.1 1.090e+04 9.827e-10
  3.76246   -137.0 1.181e+04 1.459e-09
  3.77497   -137.7 1.283e+04 2.270e-09
  3.78517   -137.9 1.310e+04 2.547e-09
  3.80328   -138.4 1.406e+04 3.869e-09
  3.82368   -138.7 1.479e+04 5.235e-09
  3.84076   -139.2 1.513e+04 5.929e-09
  3.85096   -139.5 1.524e+04 6.219e-09
  3.85977   -140.1 1.526e+04 6.324e-09
  3.86998   -140.4 1.531e+04 6.489e-09
  3.88491   -140.6 1.483e+04 5.678e-09
  3.90532   -140.5 1.414e+04 4.288e-09
  3.91675   -140.6 1.348e+04 3.143e-09
  3.92695   -140.6 1.348e+04 3.175e-09
  3.94613   -141.1 1.293e+04 2.391e-09
  3.96654   -141.6 1.247e+04 1.876e-09
  3.98254   -141.9 1.209e+04 1.541e-09
  3.99274   -141.8 1.220e+04 1.610e-09
  4.00736   -142.0 1.199e+04 1.430e-09
  4.02777   -142.1 1.183e+04 1.314e-09
  4.04817   -142.1 1.167e+04 1.240e-09
  4.05853   -142.3 1.156e+04 1.177e-09
  4.06873   -142.3 1.185e+04 1.326e-09
  4.08864   -142.6 1.211e+04 1.331e-09
  4.09884   -143.9 1.356e+04 1.922e-09
  4.10940   -144.3 1.397e+04 2.310e-09
  4.12432   -144.5 1.423e+04 2.636e-09
  4.13452   -144.7 1.495e+04 3.207e-09
  4.15021   -145.0 1.498e+04 3.324e-09
  4.17062   -145.1 1.489e+04 3.335e-09
  4.19010   -144.9 1.450e+04 3.069e-09
  4.20031   -145.0 1.495e+04 3.314e-09
  4.21144   -144.7 1.443e+04 2.766e-09
  4.23185   -144.4 1.392e+04 2.304e-09
  4.25225   -144.2 1.345e+04 1.946e-09
  4.26610   -143.8 1.302e+04 1.694e-09
  4.27630   -144.1 1.355e+04 1.932e-09
  4.29307   -143.9 1.335e+04 1.826e-09
  4.31348   -143.7 1.335e+04 1.799e-09
  4.32771   -143.6 1.359e+04 1.851e-09
  4.33592   -143.9 1.274e+04 1.312e-09
  4.34209   -144.7 1.397e+04 1.813e-09
  4.35430   -144.7 1.411e+04 1.763e-09
  4.37470   -144.8 1.428e+04 1.784e-09
  4.39511   -145.0 1.442e+04 1.849e-09
  4.40788   -145.3 1.446e+04 1.934e-09
  4.41808   -146.5 1.588e+04 3.563e-09
  4.43593   -146.6 1.564e+04 3.581e-09
  4.45634   -146.5 1.509e+04 3.340e-09
  4.47366   -146.2 1.443e+04 2.881e-09
  4.48387   -146.5 1.488e+04 3.920e-09
  4.49715   -146.0 1.406e+04 2.968e-09
  4.51756   -145.6 1.337e+04 2.248e-09
  4.53797   -145.3 1.281e+04 1.720e-09
  4.54966   -145.1 1.236e+04 1.352e-09
  4.55807   -145.3 1.225e+04 1.383e-09
  4.56679   -145.1 1.201e+04 1.025e-09
  4.57878   -144.7 1.170e+04 8.645e-10
  4.59919   -144.2 1.146e+04 7.569e-10
  4.61544   -143.6 1.130e+04 6.901e-10
  4.62565   -143.5 1.122e+04 6.850e-10
  4.64001   -142.9 1.114e+04 6.367e-10
  4.66042   -142.4 1.116e+04 6.102e-10
  4.68083   -142.0 1.123e+04 6.052e-10
  4.69144   -141.7 1.134e+04 6.169e-10
  4.70164   -141.2 1.127e+04 5.618e-10
  4.72164   -140.9 1.140e+04 5.577e-10
  4.74205   -140.8 1.153e+04 5.558e-10
  4.75722   -140.8 1.170e+04 5.595e-10
  4.77773   -140.4 1.141e+04 4.311e-10
  4.79585   -140.7 1.170e+04 5.047e-10
  4.80596   -141.1 1.212e+04 8.305e-10
  4.82301   -141.3 1.217e+04 9.230e-10
  4.83322   -140.7 1.196e+04 7.501e-10
  4.84409   -140.9 1.191e+04 8.121e-10
  4.86450   -141.0 1.192e+04 8.670e-10
  4.88491   -141.0 1.192e+04 9.399e-10
  4.89900   -141.1 1.198e+04 1.016e-09
  4.90931   -140.6 1.170e+04 8.237e-10
  4.93612   -140.8 1.188e+04 9.508e-10
  4.96489   -140.8 1.220e+04 1.183e-09
  4.97500   -139.7 1.211e+04 1.059e-09
  4.98695   -140.8 1.236e+04 1.256e-09
  5.00735   -142.0 1.254e+04 1.539e-09
  5.02453   -142.9 1.270e+04 1.714e-09
  5.03473   -144.3 1.308e+04 1.872e-09
  5.04078   -144.8 1.324e+04 2.045e-09
  5.05099   -143.9 1.332e+04 2.199e-09
  5.06858   -144.3 1.342e+04 2.284e-09
  5.08899   -144.7 1.335e+04 2.171e-09
  5.10657   -145.0 1.301e+04 1.768e-09
  5.11678   -144.1 1.335e+04 2.159e-09
  5.12980   -144.4 1.294e+04 1.692e-09
  5.15021   -144.6 1.249e+04 1.335e-09
  5.17062   -144.8 1.208e+04 1.122e-09
  5.18256   -144.9 1.185e+04 1.025e-09
  5.19277   -144.2 1.197e+04 1.072e-09
  5.21144   -144.2 1.180e+04 1.003e-09
  5.23184   -144.2 1.176e+04 9.915e-10
  5.24835   -144.3 1.184e+04 1.007e-09
  5.25856   -143.7 1.169e+04 9.471e-10
  5.26360   -143.9 1.183e+04 9.877e-10
  5.27380   -144.5 1.174e+04 9.552e-10
  5.29307   -144.6 1.197e+04 1.062e-09
  5.31348   -144.7 1.215e+04 1.177e-09
  5.32434   -144.7 1.223e+04 1.263e-09
  5.33455   -144.0 1.207e+04 1.125e-09
  5.35429   -144.0 1.210e+04 1.171e-09
  5.37470   -143.8 1.209e+04 1.181e-09
  5.39013   -143.4 1.196e+04 1.176e-09
  5.40034   -142.8 1.193e+04 1.079e-09
  5.41552   -142.2 1.176e+04 1.051e-09
  5.43593   -141.6 1.165e+04 9.361e-10
  5.45592   -140.8 1.150e+04 7.974e-10
  5.46612   -140.2 1.140e+04 7.536e-10
  5.47674   -139.3 1.123e+04 6.242e-10
  5.49247   -138.4 1.110e+04 5.111e-10
  5.50267   -138.2 1.106e+04 4.871e-10
  5.51756   -137.7 1.103e+04 4.347e-10
  5.54827   -137.0 1.097e+04 3.834e-10
  5.58769   -135.6 1.076e+04 3.237e-10
  5.60810   -134.3 1.078e+04 3.033e-10
  5.63000   -132.3 1.054e+04 2.629e-10
  5.67081   -130.5 1.040e+04 2.478e-10
  5.71133   -128.7 1.038e+04 2.463e-10
  5.73174   -128.6 1.041e+04 2.653e-10
  5.73967   -127.1 1.041e+04 2.718e-10
  5.76008   -126.0 1.061e+04 3.078e-10
  5.79326   -124.9 1.083e+04 3.687e-10
  5.83408   -124.0 1.114e+04 4.596e-10
  5.87125   -123.6 1.151e+04 5.785e-10
  5.89166   -122.5 1.172e+04 7.314e-10
  5.90541   -122.7 1.188e+04 7.983e-10
  5.92572   -123.1 1.201e+04 8.885e-10
  5.94613   -123.3 1.219e+04 9.889e-10
  5.95725   -123.5 1.240e+04 1.110e-09
  5.96133   -122.7 1.234e+04 1.082e-09
  5.97062   -123.1 1.236e+04 1.082e-09
  5.98694   -123.3 1.257e+04 1.191e-09
  6.00735   -123.7 1.279e+04 1.315e-09
  6.02304   -124.2 1.290e+04 1.420e-09
  6.03324   -122.9 1.282e+04 1.282e-09
  6.04817   -123.1 1.289e+04 1.348e-09
  6.06858   -123.2 1.289e+04 1.367e-09
  6.08883   -123.0 1.287e+04 1.362e-09
  6.09903   -122.7 1.284e+04 1.323e-09
  6.11969   -122.3 1.285e+04 1.372e-09
  6.15481   -122.0 1.281e+04 1.410e-09
  6.17512   -120.6 1.285e+04 1.253e-09
  6.18928   -120.4 1.285e+04 1.285e-09
  6.19949   -120.7 1.280e+04 1.248e-09
  6.21143   -120.5 1.278e+04 1.275e-09
  6.23061   -120.2 1.277e+04 1.297e-09
  6.24081   -120.0 1.274e+04 1.277e-09
  6.25225   -119.8 1.267e+04 1.279e-09
  6.28296   -119.8 1.260e+04 1.279e-09
  6.30679   -119.5 1.241e+04 1.231e-09
  6.31690   -117.6 1.239e+04 1.208e-09
  6.33388   -117.3 1.225e+04 1.161e-09
  6.35429   -117.0 1.215e+04 1.097e-09
  6.37239   -116.7 1.206e+04 1.030e-09
  6.38259   -116.4 1.201e+04 1.006e-09
  6.39511   -116.0 1.195e+04 9.444e-10
  6.41551   -115.6 1.188e+04 8.873e-10
  6.42836   -115.1 1.180e+04 8.287e-10
  6.43856   -115.5 1.180e+04 8.361e-10
  6.44838   -114.9 1.171e+04 7.885e-10
  6.45858   -113.6 1.146e+04 6.570e-10
  6.47674   -112.9 1.139e+04 6.227e-10
  6.49715   -112.2 1.137e+04 6.043e-10
  6.51417   -111.4 1.137e+04 6.012e-10
  6.52437   -110.5 1.114e+04 5.372e-10
  6.53796   -109.7 1.115e+04 5.368e-10
  6.55837   -108.9 1.123e+04 5.512e-10
  6.57878   -108.2 1.132e+04 5.872e-10
  6.59016   -107.4 1.142e+04 6.347e-10
  6.60036   -106.2 1.119e+04 5.628e-10
  6.61960   -105.2 1.128e+04 6.226e-10
  6.64000   -104.2 1.139e+04 6.887e-10
  6.65595   -103.1 1.153e+04 7.577e-10
  6.66296   -102.4 1.141e+04 7.310e-10
  6.66743   -102.7 1.133e+04 7.046e-10
  6.68082   -101.7 1.143e+04 7.471e-10
  6.70123   -100.5 1.155e+04 7.814e-10
  6.72164    -99.5 1.168e+04 8.153e-10
  6.73194    -98.7 1.180e+04 8.577e-10
  6.74214    -97.6 1.195e+04 9.346e-10
  6.76245    -97.0 1.219e+04 1.032e-09
  6.78286    -96.5 1.245e+04 1.182e-09
  6.79773    -96.0 1.272e+04 1.409e-09
  6.80793    -95.5 1.315e+04 1.670e-09
  6.82368    -95.1 1.349e+04 2.106e-09
  6.84408    -94.4 1.378e+04 2.652e-09
  6.86351    -93.6 1.403e+04 3.246e-09
  6.87372    -92.9 1.440e+04 3.903e-09
  6.88490    -91.9 1.459e+04 4.563e-09
  6.89630    -90.9 1.468e+04 4.983e-09
  6.90650    -90.8 1.387e+04 3.275e-09
  6.92572    -89.6 1.400e+04 3.666e-09
  6.93951    -88.4 1.409e+04 3.892e-09
  6.94971    -87.6 1.426e+04 4.336e-09
  6.96653    -86.6 1.429e+04 4.283e-09
  6.98694    -85.5 1.429e+04 4.008e-09
  7.00529    -84.9 1.446e+04 3.976e-09
  7.01550    -84.2 1.432e+04 3.863e-09
  7.02776    -83.9 1.474e+04 3.983e-09
  7.04817    -84.1 1.593e+04 4.688e-09
  7.06857    -85.2 1.766e+04 6.843e-09
  7.08129    -86.1 1.925e+04 1.129e-08
  7.09149    -84.7 1.833e+04 8.235e-09
  7.10939    -85.4 1.956e+04 1.327e-08
  7.12517    -86.0 2.023e+04 1.850e-08
  7.13532    -86.2 2.094e+04 2.501e-08
  7.14703    -87.5 2.095e+04 2.676e-08
  7.15728    -85.8 2.060e+04 2.367e-08
  7.17061    -86.1 2.007e+04 2.092e-08
  7.19102    -85.9 1.920e+04 1.439e-08
  7.21143    -86.4 1.817e+04 8.306e-09
  7.22307    -87.9 1.659e+04 4.293e-09
  7.23327    -85.6 1.759e+04 6.086e-09
  7.25225    -87.4 1.605e+04 3.343e-09
  7.27266    -89.2 1.410e+04 1.913e-09
  7.28885    -90.4 1.256e+04 1.201e-09
  7.29906    -88.2 1.404e+04 1.802e-09
  7.31347    -89.4 1.265e+04 1.151e-09
  7.33388    -90.2 1.178e+04 8.154e-10
  7.35404    -90.9 1.118e+04 6.319e-10
  7.36424    -92.0 1.050e+04 4.897e-10
  7.36485    -92.3 1.028e+04 4.380e-10
  7.37505    -91.4 1.047e+04 4.815e-10
  7.39510    -91.7 1.029e+04 4.371e-10
  7.41551    -91.7 1.017e+04 4.131e-10
  7.43063    -91.8 1.011e+04 4.038e-10
  7.44084    -91.0 1.028e+04 4.421e-10
  7.45633    -91.2 1.019e+04 4.301e-10
  7.47674    -91.5 1.029e+04 4.414e-10
  7.49642    -92.3 1.052e+04 5.247e-10
  7.50663    -91.5 1.053e+04 5.289e-10
  7.51755    -92.2 1.084e+04 6.736e-10
  7.53796    -92.7 1.128e+04 9.128e-10
  7.55837    -92.9 1.173e+04 1.224e-09
  7.57241    -93.0 1.202e+04 1.476e-09
  7.58262    -92.2 1.208e+04 1.528e-09
  7.59311    -92.2 1.222e+04 1.653e-09
  7.60332    -92.6 1.222e+04 1.630e-09
  7.61959    -92.5 1.207e+04 1.538e-09
  7.63820    -92.1 1.165e+04 1.196e-09
  7.64841    -91.4 1.189e+04 1.367e-09
  7.66041    -91.2 1.139e+04 9.999e-10
  7.68082    -90.9 1.083e+04 6.937e-10
  7.70123    -90.6 1.029e+04 4.726e-10
  7.71419    -90.2 9.926e+03 3.468e-10
  7.72440    -89.4 1.010e+04 4.149e-10
  7.74204    -88.8 9.796e+03 3.209e-10
  7.76245    -88.2 9.687e+03 2.901e-10
  7.79316    -87.3 9.590e+03 2.559e-10
  7.83407    -86.0 9.191e+03 1.884e-10
  7.85617    -84.4 8.872e+03 1.486e-10
  7.87658    -83.3 9.192e+03 2.002e-10
  7.91571    -81.8 8.979e+03 1.764e-10
  7.95652    -80.3 8.892e+03 1.682e-10
  7.98774    -78.7 8.843e+03 1.688e-10
  8.00815    -77.7 9.127e+03 2.232e-10
  8.03815    -76.1 9.045e+03 2.142e-10
  8.06125    -74.5 8.980e+03 2.030e-10
  8.08166    -73.7 8.920e+03 1.803e-10
  8.11932    -71.9 8.916e+03 1.756e-10
  8.13973    -71.3 9.144e+03 2.222e-10
  8.16060    -69.7 9.180e+03 2.217e-10
  8.20142    -68.0 9.440e+03 2.459e-10
  8.23193    -67.1 9.550e+03 2.669e-10
  8.25224    -67.0 9.643e+03 2.780e-10
  8.27111    -68.4 1.062e+04 3.971e-10
  8.28131    -71.2 1.207e+04 5.396e-10
  8.28992    -75.8 1.461e+04 1.394e-09
  8.30013    -71.7 1.307e+04 8.228e-10
  8.31347    -75.4 1.491e+04 2.049e-09
  8.33388    -77.0 1.573e+04 4.321e-09
  8.34705    -77.3 1.602e+04 6.560e-09
  8.35211    -76.8 1.561e+04 6.402e-09
  8.35929    -76.8 1.589e+04 7.416e-09
  8.37464    -76.2 1.624e+04 8.131e-09
  8.39510    -75.9 1.661e+04 8.288e-09
  8.41289    -77.1 1.671e+04 6.350e-09
  8.42309    -79.5 1.540e+04 3.016e-09
  8.43592    -83.5 1.372e+04 1.708e-09
  8.45633    -87.2 1.141e+04 1.056e-09
  8.47673    -88.7 1.049e+04 8.031e-10
  8.48888    -89.0 1.040e+04 6.905e-10
  8.49909    -88.8 1.039e+04 6.490e-10
  8.51889    -89.2 1.024e+04 5.831e-10
  8.53940    -88.6 1.050e+04 6.933e-10
  8.55486    -88.8 1.012e+04 5.385e-10
  8.57527    -87.6 9.967e+03 4.669e-10
  8.60958    -87.8 9.692e+03 3.982e-10
  8.65040    -88.4 9.700e+03 3.971e-10
  8.68644    -89.8 1.050e+04 6.127e-10
  8.70685    -89.2 1.084e+04 6.630e-10
  8.73203    -90.8 1.197e+04 1.367e-09
  8.75797    -91.0 1.229e+04 1.763e-09
  8.76786    -91.8 1.237e+04 1.793e-09
  8.77244    -91.9 1.275e+04 2.115e-09
  8.78286    -92.5 1.293e+04 2.341e-09
  8.80326    -93.0 1.297e+04 2.404e-09
  8.82367    -93.2 1.291e+04 2.391e-09
  8.83823    -93.3 1.267e+04 2.142e-09
  8.84843    -93.0 1.285e+04 2.359e-09
  8.86449    -93.0 1.252e+04 1.908e-09
  8.88490    -93.0 1.221e+04 1.543e-09
  8.90402    -93.0 1.189e+04 1.266e-09
  8.91422    -92.6 1.195e+04 1.298e-09
  8.93601    -92.8 1.158e+04 1.046e-09
  8.97000    -92.2 1.115e+04 8.121e-10
  8.99021    -91.3 1.125e+04 8.556e-10
  8.99714    -92.2 1.142e+04 8.988e-10
  9.01774    -91.3 1.112e+04 7.672e-10
  9.05856    -90.3 1.102e+04 7.295e-10
  9.08907    -89.1 1.108e+04 7.531e-10
  9.10939    -88.9 1.103e+04 7.422e-10
  9.12179    -88.5 1.100e+04 7.355e-10
  9.13199    -88.0 1.118e+04 8.199e-10
  9.15020    -87.7 1.117e+04 8.142e-10
  9.17061    -87.2 1.113e+04 7.815e-10
  9.18758    -86.7 1.103e+04 7.073e-10
  9.19778    -86.5 1.129e+04 8.313e-10
  9.21143    -86.0 1.114e+04 7.297e-10
  9.22581    -85.3 1.095e+04 6.171e-10
  9.23601    -85.5 1.092e+04 6.111e-10
  9.25346    -84.7 1.069e+04 4.845e-10
  9.27387    -84.0 1.077e+04 5.242e-10
  9.29306    -83.3 1.064e+04 4.556e-10
  9.31347    -82.7 1.059e+04 4.315e-10
  9.32936    -82.0 1.056e+04 4.208e-10
  9.33956    -82.1 1.068e+04 4.724e-10
  9.35428    -81.5 1.067e+04 4.721e-10
  9.37469    -81.0 1.072e+04 4.832e-10
  9.39510    -80.5 1.081e+04 5.189e-10
  9.41551    -79.9 1.106e+04 6.095e-10
  9.43592    -79.4 1.117e+04 6.413e-10
  9.45468    -79.0 1.124e+04 6.546e-10
  9.46488    -78.9 1.123e+04 6.438e-10
  9.47114    -78.7 1.127e+04 6.470e-10
  9.48134    -78.7 1.140e+04 6.623e-10
  9.50744    -78.4 1.126e+04 5.912e-10
  9.53712    -77.5 1.095e+04 4.516e-10
  9.55753    -77.2 1.090e+04 4.104e-10
  9.58917    -75.7 1.045e+04 2.488e-10
  9.62999    -74.1 1.010e+04 1.475e-10
  9.66870    -72.5 9.945e+03 1.001e-10
  9.68910    -72.3 9.942e+03 1.022e-10
  9.71162    -70.4 9.871e+03 8.101e-11
  9.75244    -68.4 9.839e+03 7.013e-11
  9.79325    -66.4 9.832e+03 6.336e-11
  9.82068    -64.3 9.843e+03 6.037e-11
  9.84109    -63.9 9.840e+03 6.270e-11
  9.87488    -61.8 9.845e+03 6.225e-11
  9.91261    -60.0 9.940e+03 6.277e-11
  9.93302    -59.6 9.938e+03 5.752e-11
  9.95226    -58.1 1.012e+04 6.687e-11
  9.97266    -57.9 1.018e+04 7.838e-11
  9.99733    -56.4 1.019e+04 1.094e-10
 10.03815    -54.9 1.025e+04 1.532e-10
 10.07897    -53.3 1.035e+04 2.024e-10
 10.10424    -51.8 1.041e+04 2.384e-10
 10.12465    -51.6 1.040e+04 2.302e-10
 10.16060    -50.2 1.041e+04 2.410e-10
 10.20141    -49.0 1.036e+04 2.416e-10
 10.23581    -47.7 1.023e+04 2.207e-10
 10.25622    -47.3 1.019e+04 1.737e-10
 10.28305    -46.0 1.009e+04 1.473e-10
 10.32386    -44.8 9.956e+03 1.250e-10
 10.36468    -43.6 9.809e+03 1.130e-10
 10.38780    -42.3 9.744e+03 1.108e-10
 10.39347    -41.9 9.794e+03 9.687e-11
 10.41117    -41.6 9.805e+03 9.711e-11
 10.44631    -40.5 9.830e+03 1.100e-10
 10.48713    -39.6 9.854e+03 1.498e-10
 10.51937    -38.9 1.002e+04 2.195e-10
 10.53978    -39.0 1.028e+04 2.733e-10
 10.56876    -38.2 1.063e+04 4.098e-10
 10.60958    -37.6 1.089e+04 5.123e-10
 10.65039    -37.3 1.099e+04 5.404e-10
 10.67136    -37.3 1.087e+04 4.607e-10
 10.69177    -37.8 1.078e+04 4.268e-10
 10.73203    -38.1 1.049e+04 3.286e-10
 10.77284    -38.0 1.031e+04 2.959e-10
 10.80293    -37.2 1.025e+04 2.981e-10
 10.82334    -37.4 1.054e+04 3.470e-10
 10.84417    -37.0 1.062e+04 3.588e-10
 10.85851    -37.5 1.072e+04 3.922e-10
 10.86871    -37.5 1.072e+04 3.963e-10
 10.87873    -38.1 1.085e+04 5.000e-10
 10.88894    -38.5 1.089e+04 5.300e-10
 10.90530    -38.9 1.111e+04 6.815e-10
 10.92571    -39.2 1.140e+04 8.831e-10
 10.94452    -39.4 1.170e+04 1.107e-09
 10.95472    -39.8 1.177e+04 1.130e-09
 10.96652    -40.0 1.204e+04 1.282e-09
 10.98693    -40.3 1.218e+04 1.315e-09
 11.01764    -40.8 1.207e+04 1.137e-09
 11.05856    -41.2 1.190e+04 8.970e-10
 11.08649    -41.3 1.164e+04 6.440e-10
 11.10690    -41.2 1.190e+04 7.729e-10
 11.14019    -40.6 1.157e+04 5.678e-10
 11.18100    -39.6 1.121e+04 4.099e-10
 11.21807    -38.5 1.090e+04 3.092e-10
 11.23848    -38.1 1.117e+04 3.929e-10
 11.26264    -36.9 1.090e+04 3.133e-10
 11.30345    -35.6 1.073e+04 2.872e-10
 11.32665    -34.2 1.077e+04 2.930e-10
 11.34706    -33.9 1.057e+04 2.873e-10
 11.37005    -32.5 1.062e+04 3.417e-10
 11.39046    -32.8 1.106e+04 5.206e-10
 11.42590    -31.2 1.130e+04 7.427e-10
 11.46672    -29.6 1.150e+04 9.545e-10
 11.50163    -28.0 1.169e+04 1.120e-09
 11.52204    -28.2 1.178e+04 1.103e-09
 11.54835    -26.7 1.175e+04 1.063e-09
 11.57752    -25.3 1.165e+04 1.038e-09
 11.58763    -25.4 1.148e+04 8.916e-10
 11.59918    -24.9 1.143e+04 8.050e-10
 11.62988    -24.1 1.160e+04 7.968e-10
 11.65361    -23.1 1.147e+04 6.694e-10
 11.67402    -23.7 1.149e+04 6.853e-10
 11.71161    -22.6 1.152e+04 6.978e-10
 11.75243    -21.5 1.166e+04 8.036e-10
 11.78439    -20.3 1.182e+04 9.577e-10
 11.79674    -19.2 1.111e+04 5.155e-10
 11.80560    -19.3 1.122e+04 6.159e-10
 11.83406    -18.1 1.131e+04 6.640e-10
 11.87488    -17.0 1.147e+04 7.325e-10
 11.91570    -15.6 1.139e+04 7.026e-10
 11.93717    -14.4 1.134e+04 7.012e-10
 11.95758    -14.6 1.122e+04 7.006e-10
 11.99733    -13.0 1.118e+04 7.118e-10
 12.03814    -11.2 1.118e+04 7.278e-10
 12.06875     -9.3 1.116e+04 7.161e-10
 12.08916     -9.2 1.105e+04 6.692e-10
 12.11978     -7.4 1.100e+04 5.976e-10
 12.16059     -5.7 1.096e+04 5.552e-10
 12.20033     -4.1 1.103e+04 5.498e-10
 12.22073     -3.7 1.080e+04 4.380e-10
 12.24213     -2.2 1.094e+04 4.241e-10
 12.28294     -0.1 1.104e+04 4.827e-10
 12.32386      1.2 1.117e+04 6.149e-10
 12.35231      3.1 1.151e+04 8.039e-10
 12.37272      4.2 1.118e+04 6.247e-10
 12.40549      6.0 1.145e+04 7.016e-10
 12.44631      7.3 1.165e+04 7.627e-10
 12.48389      8.3 1.190e+04 8.344e-10
 12.50429      9.5 1.141e+04 5.386e-10
 12.52794     10.7 1.154e+04 7.045e-10
 12.56876     12.2 1.175e+04 9.356e-10
 12.60957     13.7 1.213e+04 1.003e-09
 12.63587     14.3 1.251e+04 9.832e-10
 12.64598     15.0 1.232e+04 1.015e-09
 12.66040     15.2 1.225e+04 1.002e-09
 12.68080     15.6 1.228e+04 8.785e-10
 12.70121     15.6 1.224e+04 8.467e-10
 12.72018     15.2 1.201e+04 5.852e-10
 12.73038     16.6 1.201e+04 8.067e-10
 12.74203     16.3 1.202e+04 7.873e-10
 12.76244     16.1 1.192e+04 8.249e-10
 12.77745     16.1 1.184e+04 7.848e-10
 12.78776     16.7 1.270e+04 1.175e-09
 12.81365     17.3 1.243e+04 1.074e-09
 12.85447     18.7 1.241e+04 8.756e-10
 12.89529     20.6 1.222e+04 7.010e-10
 12.91943     22.6 1.208e+04 6.709e-10
 12.93984     23.0 1.189e+04 6.428e-10
 12.97692     25.1 1.195e+04 7.041e-10
 13.01773     27.2 1.216e+04 9.076e-10
 13.05100     29.5 1.254e+04 1.266e-09
 13.07141     30.1 1.213e+04 1.109e-09
 13.09937     32.5 1.236e+04 1.262e-09
 13.14018     34.8 1.230e+04 1.154e-09
 13.17801     36.5 1.213e+04 9.721e-10
 13.19842     37.9 1.311e+04 1.646e-09
 13.20299     39.7 1.269e+04 1.237e-09
 13.22340     40.3 1.228e+04 9.299e-10
 13.26263     42.1 1.195e+04 7.969e-10
 13.30345     44.3 1.182e+04 7.748e-10
 13.33456     46.7 1.184e+04 7.866e-10
 13.35497     47.0 1.116e+04 4.474e-10
 13.38508     49.3 1.105e+04 3.735e-10
 13.42590     51.7 1.104e+04 3.165e-10
 13.46614     53.8 1.125e+04 2.558e-10
 13.48655     53.2 9.984e+03 1.081e-10
 13.50753     54.6 9.886e+03 8.749e-11
 13.54835     56.1 9.836e+03 8.404e-11
 13.58916     57.6 1.009e+04 8.700e-11
 13.61812     58.2 1.031e+04 1.040e-10
 13.63853     58.9 9.317e+03 8.630e-11
 13.65616     60.0 9.503e+03 1.166e-10
 13.67657     61.9 9.892e+03 1.196e-10
 13.71161     62.6 1.046e+04 2.322e-10
 13.74212     63.4 1.045e+04 3.142e-10
 13.75971     62.8 1.126e+04 5.766e-10
 13.76991     64.6 1.078e+04 4.393e-10
 13.78284     63.5 1.190e+04 9.331e-10
 13.80325     62.6 1.336e+04 2.166e-09
 13.82366     62.4 1.486e+04 4.223e-09
 13.83570     62.4 1.614e+04 5.958e-09
 13.84590     63.5 1.535e+04 5.400e-09
 13.86448     63.3 1.622e+04 5.942e-09
 13.88483     62.7 1.622e+04 5.318e-09
 13.90144     63.2 1.611e+04 4.639e-09
 13.91169     65.0 1.627e+04 5.275e-09
 13.92570     63.9 1.556e+04 3.240e-09
 13.94611     62.3 1.407e+04 1.826e-09
 13.96652     60.9 1.264e+04 1.173e-09
 13.99723     59.9 1.175e+04 7.376e-10
 14.03326     59.9 1.096e+04 5.035e-10
 14.05367     60.9 1.108e+04 5.785e-10
 14.07896     61.5 1.077e+04 4.931e-10
 14.11390     62.4 1.055e+04 4.016e-10
 14.13431     63.6 1.077e+04 5.179e-10
 14.16059     64.4 1.046e+04 4.067e-10
 14.18524     65.3 1.023e+04 3.434e-10
 14.20565     65.9 1.063e+04 5.243e-10
 14.24222     66.8 1.039e+04 4.234e-10
 14.28304     67.7 1.018e+04 3.523e-10
 14.31682     68.8 1.010e+04 3.418e-10
 14.33723     68.8 1.022e+04 3.865e-10
 14.36467     69.9 1.025e+04 3.993e-10
 14.40549     71.1 1.046e+04 4.684e-10
 14.43600     71.9 1.062e+04 5.368e-10
 14.45631     72.4 1.072e+04 5.778e-10
 14.46861     73.0 1.076e+04 5.835e-10
 14.47881     72.9 1.075e+04 5.805e-10
 14.49713     73.3 1.076e+04 5.793e-10
 14.51754     73.7 1.078e+04 5.736e-10
 14.53440     74.0 1.079e+04 5.726e-10
 14.54460     73.9 1.080e+04 5.780e-10
 14.55835     74.1 1.089e+04 5.979e-10
 14.57876     74.2 1.101e+04 6.350e-10
 14.59185     74.1 1.127e+04 7.298e-10
 14.60205     74.2 1.122e+04 7.101e-10
 14.61039     74.1 1.147e+04 8.437e-10
 14.62059     73.8 1.160e+04 8.951e-10
 14.63998     73.7 1.196e+04 1.094e-09
 14.66039     73.5 1.226e+04 1.278e-09
 14.67618     73.0 1.263e+04 1.532e-09
 14.68638     72.6 1.257e+04 1.465e-09
 14.70121     72.4 1.268e+04 1.541e-09
 14.72162     72.0 1.272e+04 1.577e-09
 14.74196     71.6 1.271e+04 1.585e-09
 14.76237     70.9 1.253e+04 1.491e-09
 14.78284     70.7 1.250e+04 1.473e-09
 14.80325     70.6 1.246e+04 1.447e-09
 14.81796     70.6 1.238e+04 1.399e-09
 14.82522     70.3 1.213e+04 1.287e-09
 14.83092     70.4 1.223e+04 1.359e-09
 14.84406     70.8 1.213e+04 1.279e-09
 14.86447     71.1 1.208e+04 1.221e-09
 14.88384     72.0 1.186e+04 1.034e-09
 14.89405     71.6 1.174e+04 1.003e-09
 14.90529     71.8 1.173e+04 9.734e-10
 14.93600     72.6 1.144e+04 7.632e-10
 14.97691     73.7 1.118e+04 5.924e-10
 15.01552     75.0 1.100e+04 4.727e-10
 15.03592     74.7 1.070e+04 3.874e-10
 15.04978     75.9 1.053e+04 3.120e-10
 15.07019     75.7 1.104e+04 4.994e-10
 15.09936     76.8 1.086e+04 4.267e-10
 15.14018     77.9 1.062e+04 3.873e-10
 15.16750     79.3 1.059e+04 3.910e-10
 15.18791     79.6 1.051e+04 3.957e-10
 15.22181     81.4 1.062e+04 4.496e-10
 15.26263     82.1 1.119e+04 5.517e-10
 15.28876     81.9 1.212e+04 7.405e-10
 15.29887     80.1 1.306e+04 9.815e-10
 15.30908     76.7 1.519e+04 2.660e-09
 15.31929     79.0 1.456e+04 1.853e-09
 15.33386     76.8 1.615e+04 5.270e-09
 15.35427     77.5 1.698e+04 1.037e-08
 15.37468     78.2 1.727e+04 1.309e-08
 15.38503     78.9 1.724e+04 1.319e-08
 15.39008     79.3 1.743e+04 1.381e-08
 15.40009     80.1 1.717e+04 1.285e-08
 15.40810     80.7 1.683e+04 9.706e-09
 15.41320     80.1 1.668e+04 7.953e-09
 15.41787     79.8 1.639e+04 5.715e-09
 15.42297     80.6 1.671e+04 7.068e-09
 15.43585     79.3 1.629e+04 4.244e-09
 15.45086     75.6 1.507e+04 2.087e-09
 15.46107     78.2 1.624e+04 3.389e-09
 15.47672     73.3 1.389e+04 1.674e-09
 15.49712     69.7 1.129e+04 1.111e-09
 15.51665     69.4 1.086e+04 1.001e-09
 15.52686     70.0 1.127e+04 1.239e-09
 15.53794     70.2 1.082e+04 1.019e-09
 15.55835     70.7 1.055e+04 8.579e-10
 15.57876     71.3 1.018e+04 6.366e-10
 15.59264     71.3 9.857e+03 4.681e-10
 15.60285     72.1 1.006e+04 5.571e-10
 15.61957     72.5 9.669e+03 3.823e-10
 15.63998     72.5 9.639e+03 3.565e-10
 15.67069     74.2 9.203e+03 2.638e-10
 15.71160     76.3 9.043e+03 2.335e-10
 15.73462     78.7 9.121e+03 2.417e-10
 15.75503     80.0 9.355e+03 2.918e-10
 15.79324     82.1 9.619e+03 3.340e-10
 15.82375     83.3 9.741e+03 3.732e-10
 15.84406     84.0 9.867e+03 4.454e-10
 15.86447     85.1 1.013e+04 5.852e-10
 15.87620     86.1 1.062e+04 8.021e-10
 15.88641     86.8 1.074e+04 8.772e-10
 15.90529     87.3 1.134e+04 1.177e-09
 15.92569     87.4 1.205e+04 1.595e-09
 15.94199     87.5 1.282e+04 2.022e-09
 15.95220     88.6 1.257e+04 1.993e-09
 15.96651     88.7 1.310e+04 2.060e-09
 15.98548     88.7 1.321e+04 1.920e-09
 15.99568     88.6 1.432e+04 3.181e-09
 16.00733     88.4 1.436e+04 2.960e-09
 16.01798     87.8 1.427e+04 2.382e-09
 16.02819     88.8 1.423e+04 1.916e-09
 16.04814     87.3 1.389e+04 1.401e-09
 16.06855     85.5 1.322e+04 1.107e-09
 16.08377     84.1 1.257e+04 9.965e-10
 16.09398     84.5 1.238e+04 7.852e-10
 16.10937     83.5 1.219e+04 8.285e-10
 16.12978     82.9 1.220e+04 9.544e-10
 16.14956     82.5 1.236e+04 1.140e-09
 16.15976     82.6 1.224e+04 1.069e-09
 16.17059     82.4 1.253e+04 1.363e-09
 16.19100     82.3 1.282e+04 1.677e-09
 16.21141     82.4 1.307e+04 1.916e-09
 16.22455     82.3 1.319e+04 1.989e-09
 16.22849     81.5 1.370e+04 2.491e-09
 16.23575     81.9 1.352e+04 2.301e-09
 16.25222     81.8 1.342e+04 2.166e-09
 16.27263     81.5 1.317e+04 1.901e-09
 16.29134     81.1 1.292e+04 1.617e-09
 16.30154     81.4 1.292e+04 1.571e-09
 16.31345     80.8 1.269e+04 1.384e-09
 16.33386     80.3 1.251e+04 1.283e-09
 16.35427     80.0 1.238e+04 1.223e-09
 16.36733     79.9 1.235e+04 1.211e-09
 16.37753     80.2 1.237e+04 1.267e-09
 16.39508     80.2 1.235e+04 1.331e-09
 16.41549     80.6 1.236e+04 1.423e-09
 16.43312     81.2 1.251e+04 1.536e-09
 16.44332     81.4 1.245e+04 1.723e-09
 16.45342     81.9 1.318e+04 1.990e-09
 16.46362     82.0 1.170e+04 1.167e-09
 16.47671     82.5 1.234e+04 1.223e-09
 16.49712     83.1 1.397e+04 1.554e-09
 16.50911     84.0 1.621e+04 1.827e-09
 16.51931     83.7 1.469e+04 1.830e-09
 16.53794     84.3 1.563e+04 1.819e-09
 16.55320     83.9 1.718e+04 2.618e-09
 16.56335     83.5 1.935e+04 3.491e-09
 16.57286     82.6 2.187e+04 5.263e-09
 16.57796     83.0 1.884e+04 1.907e-09
 16.57990     82.2 2.221e+04 2.862e-09
 16.58501     82.1 1.749e+04 2.173e-09
 16.59396     81.4 1.944e+04 2.828e-09
 16.60417     80.6 2.179e+04 3.767e-09
 16.61280     79.0 2.442e+04 5.763e-09
 16.61790     77.4 1.955e+04 5.967e-09
 16.62457     75.4 2.260e+04 8.640e-09
 16.63478     73.6 2.432e+04 1.495e-08
 16.64498     72.2 2.467e+04 2.606e-08
 16.65079     71.3 2.448e+04 3.992e-08
 16.65589     70.4 2.355e+04 2.744e-08
 16.66539     69.7 2.363e+04 3.355e-08
 16.67560     69.0 2.350e+04 3.697e-08
 16.68369     68.1 2.343e+04 3.778e-08
 16.68879     67.6 2.294e+04 3.185e-08
 16.69239     66.7 2.277e+04 2.878e-08
 16.69750     66.8 2.224e+04 2.932e-08
 16.70621     65.8 2.226e+04 2.571e-08
 16.71641     65.1 2.190e+04 2.019e-08
 16.72168     64.1 2.162e+04 1.534e-08
 16.72683     64.4 2.126e+04 1.606e-08
 16.74202     62.0 1.948e+04 9.236e-09
 16.76243     59.5 1.697e+04 5.363e-09
 16.78247     58.2 1.479e+04 3.290e-09
 16.79267     57.5 1.496e+04 4.208e-09
 16.80324     57.4 1.467e+04 3.940e-09
 16.82365     57.3 1.490e+04 4.196e-09
 16.84406     57.2 1.540e+04 4.885e-09
 16.85846     57.2 1.597e+04 5.832e-09
 16.86866     56.4 1.775e+04 1.153e-08
 16.88488     56.6 1.789e+04 1.153e-08
 16.90528     56.8 1.752e+04 9.843e-09
 16.92136     56.1 1.663e+04 7.385e-09
 16.93012     58.5 1.763e+04 8.789e-09
 16.93445     57.8 1.790e+04 8.897e-09
 16.94610     55.9 1.593e+04 5.209e-09
 16.96651     53.6 1.427e+04 3.389e-09
 16.98692     53.5 1.307e+04 2.396e-09
 17.00024     54.0 1.248e+04 1.946e-09
 17.01044     53.5 1.175e+04 1.190e-09
 17.02773     54.0 1.135e+04 1.011e-09
 17.05844     54.9 1.074e+04 7.180e-10
 17.09936     57.2 1.027e+04 6.343e-10
 17.13201     59.5 1.011e+04 6.345e-10
 17.15242     59.3 9.549e+03 4.266e-10
 17.18099     61.9 9.892e+03 5.607e-10
 17.22181     64.4 1.028e+04 7.381e-10
 17.26262     66.7 1.058e+04 8.905e-10
 17.28399     68.9 1.082e+04 1.032e-09
 17.30440     69.0 1.077e+04 9.963e-10
 17.34425     71.1 1.113e+04 1.224e-09
 17.37930     73.2 1.147e+04 1.445e-09
 17.39970     73.7 1.152e+04 1.463e-09
 17.41557     75.6 1.168e+04 1.561e-09
 17.43598     75.6 1.169e+04 1.563e-09
 17.46670     77.3 1.165e+04 1.527e-09
 17.50752     79.1 1.140e+04 1.359e-09
 17.54715     81.1 1.105e+04 1.136e-09
 17.56755     81.0 1.118e+04 1.206e-09
 17.58915     83.0 1.104e+04 1.145e-09
 17.62997     85.1 1.091e+04 1.081e-09
 17.67078     87.2 1.080e+04 1.020e-09
 17.69913     89.3 1.067e+04 9.572e-10
 17.71954     89.4 1.095e+04 1.112e-09
 17.75242     91.6 1.072e+04 9.773e-10
 17.79323     93.8 1.040e+04 8.041e-10
 17.83070     96.0 1.011e+04 6.528e-10
 17.85111     96.2 1.000e+04 5.980e-10
 17.85744     98.4 9.707e+03 4.605e-10
 17.87785     99.1 9.841e+03 4.932e-10
 17.91568    101.2 9.597e+03 3.846e-10
 17.95650    103.3 9.411e+03 3.098e-10
 17.98269    105.4 9.269e+03 2.777e-10
 18.00310    106.0 8.999e+03 2.188e-10
 18.03813    108.3 8.979e+03 2.179e-10
 18.07895    110.8 8.987e+03 2.227e-10
 18.11426    113.1 9.056e+03 2.455e-10
 18.13467    114.0 9.012e+03 2.348e-10
 18.16058    116.2 9.171e+03 2.829e-10
 18.20139    118.4 9.406e+03 3.614e-10
 18.24221    120.5 9.680e+03 4.577e-10
 18.26625    122.5 9.941e+03 5.324e-10
 18.28666    123.2 9.966e+03 5.523e-10
 18.31518    124.9 1.012e+04 5.737e-10
 18.33559    125.9 1.086e+04 9.673e-10
 18.36466    127.5 1.101e+04 9.969e-10
 18.39782    128.8 1.098e+04 9.389e-10
 18.41823    129.2 1.107e+04 9.805e-10
 18.44629    130.3 1.083e+04 7.825e-10
 18.48711    131.3 1.037e+04 5.319e-10
 18.52792    132.3 9.805e+03 3.332e-10
 18.54981    133.3 9.348e+03 2.330e-10
 18.57022    133.4 9.353e+03 2.288e-10
 18.60956    134.9 9.217e+03 2.197e-10
 18.65037    136.8 9.212e+03 2.214e-10
 18.68138    138.8 9.252e+03 2.298e-10
 18.70179    139.1 9.284e+03 2.335e-10
 18.73201    141.0 9.407e+03 2.562e-10
 18.77282    142.7 9.556e+03 2.881e-10
 18.81296    145.1 1.011e+04 4.417e-10
 18.83337    145.1 1.032e+04 5.271e-10
 18.85445    146.8 1.095e+04 7.506e-10
 18.88497    147.4 1.113e+04 8.377e-10
 18.89896    147.9 1.136e+04 9.440e-10
 18.90916    147.6 1.158e+04 1.091e-09
 18.92569    147.9 1.192e+04 1.300e-09
 18.94610    147.9 1.232e+04 1.591e-09
 18.96475    147.8 1.270e+04 1.939e-09
 18.97495    147.4 1.290e+04 2.193e-09
 18.98691    147.4 1.313e+04 2.420e-09
 19.00732    147.3 1.316e+04 2.438e-09
 19.02200    147.1 1.313e+04 2.391e-09
 19.03221    147.2 1.388e+04 3.419e-09
 19.04074    147.3 1.352e+04 2.742e-09
 19.05094    146.9 1.334e+04 2.368e-09
 19.06854    146.9 1.299e+04 1.764e-09
 19.09642    146.5 1.233e+04 1.084e-09
 19.11693    145.3 1.160e+04 6.364e-10
 19.14017    144.9 1.083e+04 3.685e-10
 19.18098    145.0 1.069e+04 3.422e-10
 19.22180    145.8 1.070e+04 3.484e-10
 19.24850    147.0 1.085e+04 3.923e-10
 19.25736    147.4 1.051e+04 3.149e-10
 19.27148    148.2 1.047e+04 2.895e-10
 19.30343    149.7 1.068e+04 3.457e-10
 19.34425    151.1 1.092e+04 4.098e-10
 19.38008    152.5 1.117e+04 4.782e-10
 19.40049    153.1 1.091e+04 4.352e-10
 19.42588    154.5 1.102e+04 4.686e-10
 19.46670    156.0 1.119e+04 5.092e-10
 19.50751    157.8 1.147e+04 5.671e-10
 19.53197    158.7 1.138e+04 5.648e-10
 19.55237    159.5 1.139e+04 5.800e-10
 19.57884    160.2 1.146e+04 6.268e-10
 19.59766    160.7 1.173e+04 6.979e-10
 19.60786    160.8 1.153e+04 6.767e-10
 19.61956    161.0 1.186e+04 7.930e-10
 19.63997    161.2 1.233e+04 9.845e-10
 19.66038    161.3 1.286e+04 1.275e-09
 19.67365    161.2 1.351e+04 1.678e-09
 19.68385    161.0 1.319e+04 1.455e-09
 19.70120    160.8 1.377e+04 1.848e-09
 19.71882    160.6 1.423e+04 2.250e-09
 19.72912    162.2 1.234e+04 1.047e-09
 19.75241    162.3 1.254e+04 1.094e-09
 19.79323    162.7 1.258e+04 1.064e-09
 19.81562    163.2 1.279e+04 1.074e-09
 19.83603    162.7 1.216e+04 8.130e-10
 19.86456    162.3 1.295e+04 1.110e-09
 19.88122    162.3 1.333e+04 1.329e-09
 19.89142    162.1 1.298e+04 1.236e-09
 19.90528    162.7 1.314e+04 1.178e-09
 19.92568    162.6 1.344e+04 1.445e-09
 19.94609    162.5 1.359e+04 1.918e-09
 19.95721    162.4 1.369e+04 2.300e-09
 19.95880    162.6 1.310e+04 1.518e-09
 19.96809    163.1 1.212e+04 9.796e-10
 19.98691    162.8 1.237e+04 1.096e-09
 20.00732    162.3 1.263e+04 1.239e-09
 20.02300    161.7 1.290e+04 1.383e-09
 20.03320    162.1 1.215e+04 1.007e-09
 20.04813    161.6 1.248e+04 1.118e-09
 20.06854    161.0 1.279e+04 1.254e-09
 20.08878    160.4 1.315e+04 1.444e-09
 20.09899    161.2 1.251e+04 1.075e-09
 20.10936    160.5 1.293e+04 1.402e-09
 20.12977    160.0 1.299e+04 1.645e-09
 20.16048    160.6 1.272e+04 1.605e-09
 20.18695    161.3 1.233e+04 1.418e-09
 20.20736    163.2 1.217e+04 1.155e-09
 20.23076    163.9 1.177e+04 1.049e-09
 20.25117    164.9 1.164e+04 8.977e-10
 20.28302    165.9 1.118e+04 7.779e-10
 20.32384    167.2 1.065e+04 5.986e-10
 20.36233    168.6 1.038e+04 5.031e-10
 20.38274    169.1 1.020e+04 4.497e-10
 20.40547    170.5 1.017e+04 4.398e-10
 20.44629    172.0 1.023e+04 4.500e-10
 20.48710    173.2 1.043e+04 5.055e-10
 20.51432    174.6 1.066e+04 5.974e-10
 20.53473    174.6 1.016e+04 4.177e-10
 20.56874    175.9 1.034e+04 4.843e-10
 20.59021    176.4 1.042e+04 5.428e-10
 20.60032    176.6 1.029e+04 4.825e-10
 20.61956    177.2 1.031e+04 5.114e-10
 20.63997    177.7 1.034e+04 5.639e-10
 20.65470    178.4 1.037e+04 6.216e-10
 20.66043    179.2 1.039e+04 6.063e-10
 20.66621    180.0 1.013e+04 4.672e-10
 20.69118    181.3 1.025e+04 5.510e-10
 20.73200    183.0 1.036e+04 6.152e-10
 20.76251    183.8 1.032e+04 6.007e-10
 20.78283    184.4 1.034e+04 6.002e-10
 20.79768    185.0 1.043e+04 6.111e-10
 20.80789    185.2 1.029e+04 5.395e-10
 20.82364    185.5 1.044e+04 5.752e-10
 20.84405    185.9 1.062e+04 6.279e-10
 20.86347    186.3 1.083e+04 6.942e-10
 20.87368    186.3 1.072e+04 6.342e-10
 20.88357    186.7 1.090e+04 7.010e-10
 20.89378    187.5 1.082e+04 6.742e-10
 20.90527    187.9 1.093e+04 7.173e-10
 20.92568    188.4 1.092e+04 7.238e-10
 20.93946    188.8 1.089e+04 7.197e-10
 20.94967    188.9 1.074e+04 6.412e-10
 20.96650    189.3 1.065e+04 6.320e-10
 20.98691    189.7 1.053e+04 6.300e-10
 21.00525    190.3 1.049e+04 6.356e-10
 21.01546    190.4 1.039e+04 6.187e-10
 21.02772    190.9 1.041e+04 6.645e-10
 21.04813    191.2 1.050e+04 7.295e-10
 21.06854    191.2 1.077e+04 8.764e-10
 21.08124    190.4 1.201e+04 1.327e-09
 21.09145    191.3 1.146e+04 1.232e-09
 21.10936    190.1 1.357e+04 2.088e-09
 21.12264    188.0 1.588e+04 4.039e-09
 21.13285    190.6 1.454e+04 2.775e-09
 21.14703    188.1 1.678e+04 5.381e-09
 21.15724    190.0 1.571e+04 3.868e-09
 21.17058    187.4 1.729e+04 6.140e-09
 21.18498    185.6 1.761e+04 7.374e-09
 21.19003    186.2 1.745e+04 6.802e-09
 21.19599    185.1 1.757e+04 7.388e-09
 21.20620    184.1 1.756e+04 7.823e-09
 21.21640    182.9 1.756e+04 7.784e-09
 21.22293    181.7 1.745e+04 7.343e-09
 21.22803    182.4 1.733e+04 7.148e-09
 21.23681    181.3 1.711e+04 6.731e-09
 21.24208    180.2 1.676e+04 5.726e-09
 21.24719    181.6 1.710e+04 6.776e-09
 21.25582    180.7 1.663e+04 5.680e-09
 21.26092    181.3 1.681e+04 6.222e-09
 21.27257    179.9 1.629e+04 4.567e-09
 21.28881    178.1 1.577e+04 2.955e-09
 21.29902    179.9 1.610e+04 3.799e-09
 21.31344    177.5 1.554e+04 2.288e-09
 21.33384    174.4 1.395e+04 1.260e-09
 21.35151    171.7 1.215e+04 7.865e-10
 21.36172    175.9 1.316e+04 9.657e-10
 21.36480    173.4 1.113e+04 5.991e-10
 21.37501    175.0 1.240e+04 8.316e-10
 21.39507    173.1 1.096e+04 6.558e-10
 21.41548    172.8 1.091e+04 6.669e-10
 21.43059    172.7 1.087e+04 6.983e-10
 21.44079    172.4 1.150e+04 9.714e-10
 21.45629    171.6 1.186e+04 1.109e-09
 21.47670    170.3 1.261e+04 1.369e-09
 21.49638    168.7 1.333e+04 1.807e-09
 21.50658    166.6 1.453e+04 3.036e-09
 21.51752    165.0 1.507e+04 3.984e-09
 21.53793    164.0 1.552e+04 5.044e-09
 21.55833    163.5 1.593e+04 5.693e-09
 21.57237    163.1 1.626e+04 5.407e-09
 21.58257    159.8 1.673e+04 5.001e-09
 21.59059    158.8 1.659e+04 3.710e-09
 21.60079    160.5 1.745e+04 5.946e-09
 21.61956    159.4 1.732e+04 4.369e-09
 21.63816    158.0 1.672e+04 2.873e-09
 21.64836    152.3 1.536e+04 1.658e-09
 21.66037    150.5 1.322e+04 1.240e-09
 21.68078    149.4 1.182e+04 1.089e-09
 21.70119    149.1 1.149e+04 1.111e-09
 21.71415    149.3 1.159e+04 1.187e-09
 21.72435    147.7 1.171e+04 1.292e-09
 21.74201    148.6 1.201e+04 1.477e-09
 21.76241    149.2 1.232e+04 1.688e-09
 21.77994    149.8 1.259e+04 1.892e-09
 21.79014    148.9 1.271e+04 1.926e-09
 21.80323    149.4 1.291e+04 2.094e-09
 21.81946    149.7 1.296e+04 2.156e-09
 21.82966    150.3 1.263e+04 1.863e-09
 21.84405    150.6 1.263e+04 1.864e-09
 21.85593    150.9 1.250e+04 1.793e-09
 21.86613    150.6 1.249e+04 1.787e-09
 21.88486    151.2 1.219e+04 1.594e-09
 21.90527    152.0 1.180e+04 1.336e-09
 21.92172    152.7 1.137e+04 1.058e-09
 21.93192    152.7 1.144e+04 1.105e-09
 21.94609    153.5 1.104e+04 8.534e-10
 21.96650    154.1 1.066e+04 6.461e-10
 21.98690    154.5 1.038e+04 5.004e-10
 21.99771    154.8 1.017e+04 4.117e-10
 22.00791    155.1 1.026e+04 4.401e-10
 22.02772    155.4 1.010e+04 3.905e-10
 22.04813    155.7 1.001e+04 3.813e-10
 22.05853    156.1 1.009e+04 3.925e-10
 22.06370    157.4 9.974e+03 3.809e-10
 22.07370    157.9 9.975e+03 3.913e-10
 22.08894    158.4 1.003e+04 3.948e-10
 22.10935    158.7 1.020e+04 4.286e-10
 22.12929    158.9 1.049e+04 5.077e-10
 22.13949    159.5 1.046e+04 5.077e-10
 22.15017    159.7 1.077e+04 6.242e-10
 22.17058    159.8 1.113e+04 7.861e-10
 22.19099    159.9 1.149e+04 9.814e-10
 22.20528    160.1 1.179e+04 1.174e-09
 22.21548    160.6 1.175e+04 1.159e-09
 22.23180    160.7 1.193e+04 1.294e-09
 22.25221    160.7 1.202e+04 1.355e-09
 22.27107    160.8 1.198e+04 1.341e-09
 22.28127    161.3 1.199e+04 1.357e-09
 22.28740    161.4 1.189e+04 1.269e-09
 22.29760    162.7 1.207e+04 1.397e-09
 22.31343    162.8 1.198e+04 1.315e-09
 22.33384    162.9 1.183e+04 1.176e-09
 22.34706    163.0 1.166e+04 1.026e-09
 22.35726    163.1 1.176e+04 1.097e-09
 22.37466    163.2 1.156e+04 9.431e-10
 22.39507    163.2 1.131e+04 8.013e-10
 22.41285    163.2 1.105e+04 6.811e-10
 22.42305    163.4 1.116e+04 7.266e-10
 22.43588    163.5 1.091e+04 6.211e-10
 22.45629    163.6 1.072e+04 5.435e-10
 22.47670    163.7 1.057e+04 4.810e-10
 22.48884    163.8 1.046e+04 4.433e-10
 22.49904    163.9 1.047e+04 4.616e-10
 22.51627    164.4 1.037e+04 4.299e-10
 22.52647    165.6 1.059e+04 5.259e-10
 22.53792    166.0 1.049e+04 4.918e-10
 22.55463    166.3 1.038e+04 4.496e-10
 22.56483    166.4 1.040e+04 4.659e-10
 22.57874    166.6 1.034e+04 4.441e-10
 22.59915    167.4 1.028e+04 4.167e-10
 22.61956    167.5 1.024e+04 4.010e-10
 22.63072    168.8 1.022e+04 3.878e-10
 22.64092    168.4 1.018e+04 3.953e-10
 22.66037    168.6 1.017e+04 3.868e-10
 22.69108    169.9 1.018e+04 3.853e-10
 22.73200    171.0 1.008e+04 3.580e-10
 22.76239    172.1 9.910e+03 3.310e-10
 22.78280    172.1 1.014e+04 4.057e-10
 22.81363    173.1 1.002e+04 3.839e-10
 22.85444    174.1 9.871e+03 3.470e-10
 22.89396    175.1 9.689e+03 3.055e-10
 22.91437    175.1 9.837e+03 3.573e-10
 22.93608    176.1 9.629e+03 3.122e-10
 22.97420    177.0 9.578e+03 2.953e-10
 22.99461    177.7 9.611e+03 3.032e-10
 23.01771    178.8 9.634e+03 2.990e-10
 23.04595    179.6 9.695e+03 3.055e-10
 23.06636    179.5 9.760e+03 3.365e-10
 23.09934    180.2 9.911e+03 3.619e-10
 23.14016    180.3 1.005e+04 3.917e-10
 23.17752    180.0 1.010e+04 4.111e-10
 23.19793    179.6 1.003e+04 4.006e-10
 23.21149    179.8 1.007e+04 4.174e-10
 23.22329    180.1 1.018e+04 4.620e-10
 23.23349    180.7 1.027e+04 4.970e-10
 23.25221    180.6 1.044e+04 5.562e-10
 23.26353    180.3 1.062e+04 6.296e-10
 23.27373    180.0 1.053e+04 6.132e-10
 23.29302    179.6 1.076e+04 7.152e-10
 23.31343    179.0 1.107e+04 8.637e-10
 23.32931    178.3 1.149e+04 1.080e-09
 23.33952    178.0 1.153e+04 1.078e-09
 23.35425    177.1 1.207e+04 1.400e-09
 23.37466    176.0 1.262e+04 1.772e-09
 23.39506    174.9 1.303e+04 2.076e-09
 23.41547    172.9 1.353e+04 2.525e-09
 23.43588    171.8 1.351e+04 2.506e-09
 23.45216    170.8 1.336e+04 2.369e-09
 23.46236    170.8 1.348e+04 2.486e-09
 23.47109    170.1 1.310e+04 2.117e-09
 23.48130    169.3 1.336e+04 2.338e-09
 23.49710    168.8 1.275e+04 1.769e-09
 23.51751    168.3 1.209e+04 1.276e-09
 23.53688    167.9 1.151e+04 9.318e-10
 23.54709    167.0 1.143e+04 8.830e-10
 23.55833    166.4 1.094e+04 6.594e-10
 23.57874    165.9 1.062e+04 5.828e-10
 23.59914    165.7 1.059e+04 5.811e-10
 23.61287    165.7 1.059e+04 5.873e-10
 23.62308    164.8 1.060e+04 5.918e-10
 23.63996    164.7 1.072e+04 6.408e-10
 23.66037    164.4 1.100e+04 7.455e-10
 23.67866    163.9 1.138e+04 9.053e-10
 23.68887    162.4 1.184e+04 1.114e-09
 23.69123    161.5 1.241e+04 1.442e-09
 23.70143    160.5 1.303e+04 1.820e-09
 23.72159    159.5 1.362e+04 2.409e-09
 23.74200    158.6 1.391e+04 2.796e-09
 23.75465    157.6 1.391e+04 2.812e-09
 23.76486    156.2 1.440e+04 3.515e-09
 23.78282    155.1 1.420e+04 3.127e-09
 23.80323    153.7 1.388e+04 2.512e-09
 23.82044    151.5 1.367e+04 1.964e-09
 23.83065    148.6 1.418e+04 2.451e-09
 23.84404    145.5 1.429e+04 2.543e-09
 23.86445    141.0 1.500e+04 3.099e-09
 23.88486    134.0 1.725e+04 6.043e-09
 23.89643    125.7 2.051e+04 1.533e-08
 23.90664    122.7 2.114e+04 1.768e-08
 23.92010    115.4 2.205e+04 2.133e-08
 23.93030    112.7 2.182e+04 2.069e-08
 23.94608    106.8 2.103e+04 1.590e-08
 23.96222    101.9 1.883e+04 7.011e-09
 23.97242     99.7 1.732e+04 5.237e-09
 23.98690     94.8 1.391e+04 1.944e-09
 24.00731     89.7 1.091e+04 8.577e-10
 24.02811     82.8 9.653e+03 3.810e-10
 24.04861     82.5 9.749e+03 4.070e-10
 24.07893     81.0 9.348e+03 2.296e-10
 24.11975     80.6 9.272e+03 1.902e-10
 24.15978     80.1 9.261e+03 1.913e-10
 24.18019     80.9 9.278e+03 1.919e-10
 24.20138     80.1 9.266e+03 2.038e-10
 24.24220     79.3 9.456e+03 2.686e-10
 24.28301     78.7 9.854e+03 3.704e-10
 24.31167     77.9 1.010e+04 4.303e-10
 24.33207     78.8 1.010e+04 4.168e-10
 24.35434     77.3 1.038e+04 5.047e-10
 24.37465     76.5 1.053e+04 5.611e-10
 24.38756     75.9 1.064e+04 6.054e-10
 24.39075     76.4 1.060e+04 5.910e-10
 24.39825     75.7 1.065e+04 6.138e-10
 24.41547     74.9 1.081e+04 6.893e-10
 24.43588     74.3 1.093e+04 7.554e-10
 24.45335     73.7 1.099e+04 7.825e-10
 24.46355     73.9 1.116e+04 8.744e-10
 24.47669     73.2 1.117e+04 8.751e-10
 24.49710     72.6 1.112e+04 8.439e-10
 24.51751     72.0 1.096e+04 7.504e-10
 24.52934     71.4 1.075e+04 6.276e-10
 24.53954     71.8 1.097e+04 7.360e-10
 24.55833     71.1 1.074e+04 5.826e-10
 24.57873     70.1 1.050e+04 4.472e-10
 24.59523     68.8 1.025e+04 3.441e-10
 24.60543     69.3 1.036e+04 3.716e-10
 24.61691     69.0 1.025e+04 3.504e-10
 24.62712     68.6 1.022e+04 3.415e-10
 24.65026     68.5 1.002e+04 2.963e-10
 24.69117     68.1 9.980e+03 2.747e-10
 24.72690     68.0 1.009e+04 2.871e-10
 24.74731     68.8 1.003e+04 2.722e-10
 24.76250     68.5 1.009e+04 2.812e-10
 24.78282     68.3 1.032e+04 3.008e-10
 24.80270     67.0 1.122e+04 4.164e-10
 24.81290     68.2 1.073e+04 3.525e-10
 24.82363     65.0 1.256e+04 6.558e-10
 24.84404     60.1 1.403e+04 1.891e-09
 24.85599     60.2 1.497e+04 4.636e-09
 24.86619     60.0 1.521e+04 4.905e-09
 24.87869     61.0 1.525e+04 5.982e-09
 24.88889     61.0 1.531e+04 6.119e-09
 24.90526     62.1 1.513e+04 5.773e-09
 24.92567     63.3 1.447e+04 3.959e-09
 24.94448     62.6 1.406e+04 1.934e-09
 24.95468     63.3 1.423e+04 2.251e-09
 24.96649     60.4 1.368e+04 8.812e-10
 24.98690     54.9 1.140e+04 4.013e-10
 25.00730     53.0 1.012e+04 3.029e-10
 25.02047     52.7 9.989e+03 2.691e-10
 25.03077     53.5 1.042e+04 3.507e-10
 25.05852     53.4 1.012e+04 3.056e-10
 25.09934     53.8 1.009e+04 3.052e-10
 25.14015     54.3 1.016e+04 3.212e-10
 25.16244     55.1 1.023e+04 3.429e-10
 25.18285     55.7 1.033e+04 3.452e-10
 25.22178     56.5 1.041e+04 3.757e-10
 25.26260     57.0 1.061e+04 4.149e-10
 25.29312     57.1 1.073e+04 4.567e-10
 25.30403     57.3 1.076e+04 4.887e-10
 25.31423     57.6 1.084e+04 5.288e-10
 25.32393     57.9 1.090e+04 5.618e-10
 25.33413     57.6 1.083e+04 5.353e-10
 25.35424     57.8 1.092e+04 5.410e-10
 25.36982     57.6 1.112e+04 5.546e-10
 25.38002     57.7 1.122e+04 6.014e-10
 25.39506     56.8 1.151e+04 6.505e-10
 25.41547     55.9 1.163e+04 7.132e-10
 25.43560     55.1 1.159e+04 7.656e-10
 25.44581     55.4 1.166e+04 8.570e-10
 25.45628     54.6 1.164e+04 8.384e-10
 25.47669     53.5 1.168e+04 7.750e-10
 25.49710     52.1 1.174e+04 6.691e-10
 25.51160     50.3 1.171e+04 5.815e-10
 25.52180     50.4 1.167e+04 5.673e-10
 25.53792     48.2 1.147e+04 5.462e-10
 25.55280     46.2 1.148e+04 5.605e-10
 25.56300     45.7 1.148e+04 6.126e-10
 25.57738     44.7 1.126e+04 6.482e-10
 25.58759     45.0 1.126e+04 6.526e-10
 25.59914     44.8 1.118e+04 6.594e-10
 25.62985     44.9 1.098e+04 6.163e-10
 25.67076     45.4 1.063e+04 4.995e-10
 25.70915     45.9 1.016e+04 3.500e-10
 25.72956     46.5 1.020e+04 3.331e-10
 25.75240     47.5 9.792e+03 2.596e-10
 25.78186     49.2 9.557e+03 2.161e-10
 25.80227     49.1 9.620e+03 2.373e-10
 25.83403     51.1 9.475e+03 2.029e-10
 25.86114     53.4 9.407e+03 1.940e-10
 25.88155     54.2 9.602e+03 2.218e-10
 25.91566     56.5 9.665e+03 2.337e-10
 25.95648     58.9 9.883e+03 2.694e-10
 25.99271     61.4 1.015e+04 3.224e-10
 26.01302     61.4 1.029e+04 3.681e-10
 26.02074     62.3 1.039e+04 4.329e-10
 26.03095     62.7 1.039e+04 4.170e-10
 26.04812     63.7 1.064e+04 5.189e-10
 26.06851     64.7 1.104e+04 6.735e-10
 26.08892     65.3 1.214e+04 1.228e-09
 26.10934     66.0 1.274e+04 1.671e-09
 26.12975     66.7 1.333e+04 2.248e-09
 26.14450     67.5 1.391e+04 2.927e-09
 26.15471     67.6 1.444e+04 3.574e-09
 26.17057     68.3 1.493e+04 4.104e-09
 26.19097     68.8 1.511e+04 4.095e-09
 26.21029     69.1 1.508e+04 3.812e-09
 26.22050     68.2 1.520e+04 3.791e-09
 26.23179     68.1 1.487e+04 3.280e-09
 26.24961     67.7 1.440e+04 2.745e-09
 26.25981     68.0 1.437e+04 2.578e-09
 26.27261     67.5 1.387e+04 2.249e-09
 26.28628     67.0 1.344e+04 2.021e-09
 26.29649     66.3 1.376e+04 2.423e-09
 26.31342     66.3 1.365e+04 2.417e-09
 26.33383     66.4 1.361e+04 2.426e-09
 26.35207     66.1 1.377e+04 2.498e-09
 26.36228     65.3 1.490e+04 3.789e-09
 26.36910     64.0 1.533e+04 3.895e-09
 26.37415     64.2 1.518e+04 3.836e-09
 26.37965     63.8 1.525e+04 3.849e-09
 26.38986     60.6 1.684e+04 4.950e-09
 26.39507     57.7 1.799e+04 6.281e-09
 26.40017     56.4 1.910e+04 8.645e-09
 26.41026     53.0 2.026e+04 1.170e-08
 26.42047     51.0 2.023e+04 1.412e-08
 26.42797     49.1 2.000e+04 1.573e-08
 26.43307     48.5 2.055e+04 1.765e-08
 26.44088     46.3 2.072e+04 1.669e-08
 26.45108     42.7 2.106e+04 1.446e-08
 26.46086     39.7 2.148e+04 1.428e-08
 26.46596     37.8 2.157e+04 1.388e-08
 26.47664     33.2 2.205e+04 1.180e-08
 26.48868     24.7 1.970e+04 1.013e-08
 26.49564     21.6 1.894e+04 9.803e-09
 26.50405     20.0 1.762e+04 8.433e-09
 26.51750     17.5 1.605e+04 6.934e-09
 26.53791     16.9 1.540e+04 5.768e-09
 26.55832     16.1 1.485e+04 3.784e-09
 26.56984     12.2 1.361e+04 2.029e-09
 26.58005     12.5 1.280e+04 1.817e-09
 26.59914      8.3 1.163e+04 1.112e-09
 26.61955      6.1 1.134e+04 1.034e-09
 26.63563      5.3 1.107e+04 9.965e-10
 26.64583      6.6 1.107e+04 9.441e-10
 26.66036      6.1 1.088e+04 9.426e-10
 26.68077      5.9 1.072e+04 9.011e-10
 26.70118      5.9 1.052e+04 8.500e-10
 26.71162      5.9 1.036e+04 7.748e-10
 26.71779      6.5 1.043e+04 8.124e-10
 26.72776      6.3 1.041e+04 7.647e-10
 26.74199      6.1 1.044e+04 7.056e-10
 26.76240      5.5 1.046e+04 6.835e-10
 26.77741      4.4 1.086e+04 6.984e-10
 26.78761      5.0 1.112e+04 7.654e-10
 26.80322      2.7 1.208e+04 9.267e-10
 26.82363     -0.3 1.324e+04 1.314e-09
 26.84320     -2.8 1.420e+04 2.054e-09
 26.85340     -2.8 1.454e+04 2.240e-09
 26.86444     -4.1 1.478e+04 3.221e-09
 26.88485     -3.5 1.467e+04 3.873e-09
 26.90526     -2.4 1.443e+04 4.091e-09
 26.91919     -1.3 1.405e+04 3.651e-09
 26.92939     -0.9 1.393e+04 3.440e-09
 26.94608     -0.3 1.353e+04 2.433e-09
 26.95663     -0.3 1.274e+04 1.700e-09
 26.96683     -2.1 1.266e+04 1.444e-09
 26.98498     -2.6 1.161e+04 9.380e-10
 26.99518     -2.7 1.134e+04 8.480e-10
 27.00730     -2.8 1.054e+04 6.347e-10
 27.02771     -2.3 1.011e+04 5.407e-10
 27.04812     -1.5 1.000e+04 5.121e-10
 27.06097     -0.8 9.982e+03 5.068e-10
 27.07117     -0.4 1.003e+04 5.262e-10
 27.08893      0.2 1.005e+04 5.484e-10
 27.10934      0.8 1.021e+04 6.187e-10
 27.12676      1.4 1.047e+04 7.332e-10
 27.13696      1.9 1.060e+04 7.998e-10
 27.15016      2.5 1.089e+04 9.492e-10
 27.17056      3.3 1.120e+04 1.125e-09
 27.18550      4.0 1.155e+04 1.327e-09
 27.19570      4.1 1.124e+04 1.070e-09
 27.20275      4.4 1.149e+04 1.155e-09
 27.21295      5.1 1.150e+04 1.173e-09
 27.23179      5.3 1.166e+04 1.257e-09
 27.25220      5.5 1.194e+04 1.435e-09
 27.26854      5.4 1.217e+04 1.582e-09
 27.27874      6.1 1.202e+04 1.457e-09
 27.29301      5.8 1.217e+04 1.603e-09
 27.31342      5.8 1.235e+04 1.807e-09
 27.33383      5.8 1.257e+04 2.043e-09
 27.34453      6.0 1.269e+04 2.215e-09
 27.35473      6.5 1.254e+04 2.061e-09
 27.37465      6.9 1.269e+04 2.243e-09
 27.39505      7.4 1.274e+04 2.316e-09
 27.41032      7.9 1.269e+04 2.276e-09
 27.41943      8.3 1.268e+04 2.264e-09
 27.42457      7.6 1.236e+04 2.030e-09
 27.43587      8.1 1.210e+04 1.821e-09
 27.45628      8.4 1.174e+04 1.546e-09
 27.47611      8.5 1.133e+04 1.284e-09
 27.48631      9.0 1.146e+04 1.371e-09
 27.49709      9.1 1.103e+04 1.129e-09
 27.51750      9.3 1.071e+04 9.568e-10
 27.53791      9.5 1.047e+04 8.355e-10
 27.55210      9.7 1.028e+04 7.421e-10
 27.56230     10.1 1.023e+04 7.149e-10
 27.57873     10.2 1.009e+04 6.386e-10
 27.59913     10.2 1.007e+04 6.147e-10
 27.61789      9.5 1.034e+04 6.554e-10
 27.62809      9.8 1.008e+04 5.618e-10
 27.63995      8.0 1.106e+04 7.813e-10
 27.65344      5.5 1.227e+04 1.228e-09
 27.66364      2.5 1.241e+04 1.492e-09
 27.68077      1.7 1.287e+04 2.220e-09
 27.69388      1.7 1.304e+04 2.765e-09
 27.70408      1.1 1.302e+04 2.783e-09
 27.72158      1.7 1.302e+04 2.921e-09
 27.74199      2.7 1.286e+04 2.594e-09
 27.75967      3.2 1.272e+04 1.732e-09
 27.76987      2.8 1.303e+04 2.065e-09
 27.78281      1.6 1.276e+04 1.179e-09
 27.80322     -3.3 1.153e+04 7.448e-10
 27.82362     -6.4 1.091e+04 6.577e-10
 27.83566     -7.7 1.133e+04 8.331e-10
 27.84586     -8.7 1.183e+04 1.159e-09
 27.86444     -9.0 1.221e+04 1.659e-09
 27.88231     -8.4 1.246e+04 2.100e-09
 27.89251     -8.2 1.261e+04 1.986e-09
 27.90145     -7.7 1.279e+04 2.245e-09
 27.91165     -7.8 1.309e+04 2.691e-09
 27.92566     -7.4 1.301e+04 2.454e-09
 27.94607     -7.5 1.269e+04 2.065e-09
 27.96648     -8.1 1.233e+04 1.738e-09
 27.97744     -9.1 1.195e+04 1.496e-09
 27.98764     -9.8 1.153e+04 1.240e-09
 28.00730    -10.5 1.119e+04 1.102e-09
 28.02771    -10.9 1.104e+04 1.040e-09
 28.04323    -11.2 1.101e+04 1.016e-09
 28.05343    -11.5 1.056e+04 8.115e-10
 28.06852    -11.8 1.059e+04 8.108e-10
 28.08893    -12.5 1.072e+04 8.341e-10
 28.10901    -13.3 1.083e+04 8.714e-10
 28.11922    -13.2 1.052e+04 7.593e-10
 28.12138    -13.8 1.066e+04 8.187e-10
 28.13159    -14.4 1.091e+04 9.207e-10
 28.15015    -14.9 1.090e+04 9.249e-10
 28.17056    -15.2 1.083e+04 9.084e-10
 28.18501    -15.4 1.061e+04 8.205e-10
 28.19521    -14.7 1.049e+04 7.985e-10
 28.21138    -14.7 1.031e+04 6.871e-10
 28.23179    -14.8 1.009e+04 5.574e-10
 28.25079    -15.2 9.831e+03 4.452e-10
 28.26100    -14.4 9.759e+03 4.277e-10
 28.28290    -14.7 9.444e+03 3.366e-10
 28.32382    -14.7 9.139e+03 2.717e-10
 28.36463    -14.2 9.033e+03 2.512e-10
 28.39277    -13.7 9.053e+03 2.552e-10
 28.41318    -13.0 9.084e+03 2.543e-10
 28.43596    -13.1 9.446e+03 3.317e-10
 28.45628    -13.3 9.559e+03 3.553e-10
 28.46857    -13.8 1.005e+04 4.699e-10
 28.47877    -14.2 1.038e+04 5.736e-10
 28.49709    -15.0 1.099e+04 7.855e-10
 28.51750    -15.7 1.149e+04 1.020e-09
 28.53435    -16.5 1.185e+04 1.220e-09
 28.54456    -15.8 1.159e+04 1.212e-09
 28.55832    -16.6 1.166e+04 1.163e-09
 28.57872    -17.9 1.161e+04 1.003e-09
 28.58933    -19.7 1.148e+04 8.401e-10
 28.59953    -18.9 1.100e+04 6.837e-10
 28.61035    -19.9 1.094e+04 6.312e-10
 28.62055    -20.1 1.058e+04 4.794e-10
 28.65025    -20.8 1.080e+04 5.667e-10
 28.67633    -22.5 1.096e+04 6.480e-10
 28.69674    -22.8 1.108e+04 6.476e-10
 28.72168    -24.1 1.161e+04 9.140e-10
 28.74192    -25.6 1.211e+04 1.247e-09
 28.76233    -26.7 1.286e+04 2.203e-09
 28.78281    -26.7 1.314e+04 2.662e-09
 28.80321    -26.7 1.324e+04 2.803e-09
 28.81791    -26.6 1.329e+04 2.631e-09
 28.82269    -25.9 1.331e+04 2.570e-09
 28.82840    -25.6 1.363e+04 2.980e-09
 28.84403    -26.0 1.304e+04 1.912e-09
 28.86444    -27.4 1.220e+04 1.171e-09
 28.89515    -28.7 1.124e+04 7.476e-10
 28.93606    -29.1 1.021e+04 4.379e-10
 28.95989    -28.7 9.768e+03 3.026e-10
 28.98030    -27.8 9.633e+03 2.641e-10
 29.01769    -26.4 9.340e+03 2.038e-10
 29.04726    -25.1 9.123e+03 1.581e-10
 29.06767    -25.2 9.054e+03 1.338e-10
 29.09146    -23.7 8.972e+03 1.149e-10
 29.11187    -22.4 8.985e+03 1.243e-10
 29.14014    -20.9 8.993e+03 1.176e-10
 29.18096    -19.5 9.018e+03 1.168e-10
 29.22177    -18.2 9.194e+03 1.289e-10
 29.24345    -17.0 9.388e+03 1.548e-10
 29.26386    -15.5 9.366e+03 1.579e-10
 29.30341    -14.3 9.560e+03 1.851e-10
 29.34422    -13.4 9.713e+03 2.102e-10
 29.37502    -12.5 9.810e+03 2.259e-10
 29.39543    -11.0 9.780e+03 2.325e-10
 29.42586    -10.3 9.801e+03 2.459e-10
 29.46667     -9.7 9.768e+03 2.505e-10
 29.50500     -9.1 9.596e+03 2.434e-10
 29.52452     -8.5 9.467e+03 1.959e-10
 29.52701     -6.8 9.516e+03 2.118e-10
 29.54830     -6.3 9.429e+03 2.185e-10
 29.58912     -5.7 9.280e+03 2.125e-10
 29.62994     -5.0 9.108e+03 1.871e-10
 29.65858     -4.2 8.899e+03 1.527e-10
 29.67899     -2.6 8.972e+03 1.712e-10
 29.71157     -1.7 8.735e+03 1.339e-10
 29.75239     -0.6 8.515e+03 1.071e-10
 29.79016      0.7 8.307e+03 8.803e-11
 29.81057      2.1 8.340e+03 9.267e-11
 29.83402      3.7 8.139e+03 7.634e-11
 29.87483      5.3 7.999e+03 6.315e-11
 29.91565      7.0 7.933e+03 5.443e-11
 29.94214      8.7 7.947e+03 5.148e-11
 29.96255     10.0 7.979e+03 5.361e-11
 29.98315     11.6 8.015e+03 5.306e-11
 30.00355     12.0 8.163e+03 8.275e-11
 30.03810     13.6 8.276e+03 1.063e-10
 30.07372     15.4 8.425e+03 1.344e-10
 30.09413     16.7 8.447e+03 1.352e-10
 30.11973     18.5 8.574e+03 1.604e-10
 30.16055     20.4 8.623e+03 1.713e-10
 30.20136     22.1 8.652e+03 1.648e-10
 30.22570     23.8 8.626e+03 1.479e-10
 30.24611     24.9 8.619e+03 1.594e-10
 30.28300     26.5 8.601e+03 1.449e-10
 30.32381     28.1 8.628e+03 1.404e-10
 30.35728     29.4 8.771e+03 1.473e-10
 30.37769     30.8 8.643e+03 1.448e-10
 30.40545     31.8 8.888e+03 1.612e-10
 30.44089     32.6 9.193e+03 2.271e-10
 30.46129     32.9 9.206e+03 2.213e-10
 30.48708     34.4 9.444e+03 3.136e-10
 30.50926     36.1 9.695e+03 3.726e-10
 30.52967     37.0 9.649e+03 3.552e-10
 30.56871     38.3 9.792e+03 3.740e-10
 30.60953     39.3 9.752e+03 3.397e-10
 30.64084     40.3 9.620e+03 2.986e-10
 30.66125     41.3 9.619e+03 2.877e-10
 30.69116     42.4 9.531e+03 2.527e-10
 30.73198     43.7 9.473e+03 2.130e-10
 30.77241     45.0 9.334e+03 1.766e-10
 30.79282     45.7 9.259e+03 1.543e-10
 30.81361     47.1 9.069e+03 1.304e-10
 30.85442     48.5 8.952e+03 1.069e-10
 30.89524     49.8 8.879e+03 9.639e-11
 30.91903     51.2 8.915e+03 9.619e-11
 30.92778     51.1 9.187e+03 1.324e-10
 30.94481     51.5 9.115e+03 1.215e-10
 30.97687     51.9 9.322e+03 1.375e-10
 31.01769     51.7 9.678e+03 1.949e-10
 31.05597     51.5 1.006e+04 3.065e-10
 31.07638     51.7 9.910e+03 3.021e-10
 31.09932     52.3 1.004e+04 4.152e-10
 31.14014     52.8 1.016e+04 4.192e-10
 31.18095     51.8 1.029e+04 3.830e-10
 31.20796     50.0 1.037e+04 4.352e-10
 31.22837     50.6 1.035e+04 4.325e-10
 31.26259     48.3 1.078e+04 5.715e-10
 31.30340     47.0 1.103e+04 8.179e-10
 31.33953     46.5 1.116e+04 9.176e-10
 31.35994     47.3 1.079e+04 7.650e-10
 31.37677     46.1 1.057e+04 4.809e-10
 31.39718     45.0 1.089e+04 5.679e-10
 31.42585     42.2 1.027e+04 4.769e-10
 31.46667     41.6 1.015e+04 4.939e-10
 31.49152     41.7 1.013e+04 5.013e-10
 31.51193     42.7 1.001e+04 4.746e-10
 31.54830     43.4 9.832e+03 4.486e-10
 31.58912     44.5 9.565e+03 3.339e-10
 31.62309     45.0 9.403e+03 2.213e-10
 31.64350     46.0 9.357e+03 2.207e-10
 31.67075     46.1 9.242e+03 1.883e-10
 31.71156     47.2 9.198e+03 1.998e-10
 31.75238     48.5 9.429e+03 2.327e-10
 31.77508     49.4 9.973e+03 2.744e-10
 31.79549     50.5 9.536e+03 1.850e-10
 31.83401     50.4 1.007e+04 2.263e-10
 31.85492     50.6 1.023e+04 3.808e-10
 31.87533     50.2 1.039e+04 4.974e-10
 31.90665     51.9 1.041e+04 5.528e-10
 31.92706     52.3 9.995e+03 4.158e-10
 31.95646     53.5 1.026e+04 3.873e-10
 31.99728     53.5 1.057e+04 3.837e-10
 32.03809     51.0 1.176e+04 7.060e-10
 32.06861     49.9 1.291e+04 1.235e-09
 32.08359     48.6 1.325e+04 2.127e-09
 32.09380     48.3 1.309e+04 2.469e-09
 32.10933     48.6 1.341e+04 3.573e-09
 32.12423     49.4 1.443e+04 4.820e-09
 32.13443     49.2 1.475e+04 5.170e-09
 32.15014     49.3 1.558e+04 5.923e-09
 32.17055     48.4 1.534e+04 5.913e-09
 32.19002     48.1 1.456e+04 5.087e-09
 32.20022     48.5 1.427e+04 4.527e-09
 32.21137     48.7 1.337e+04 2.928e-09
 32.23178     48.4 1.298e+04 1.677e-09
 32.25218     45.5 1.263e+04 9.941e-10
 32.28289     42.7 1.183e+04 7.781e-10
 32.31266     40.5 1.140e+04 7.183e-10
 32.33105     40.9 1.102e+04 6.852e-10
 32.34220     41.6 1.064e+04 5.495e-10
 32.36462     42.2 1.093e+04 7.372e-10
 32.40544     43.1 1.096e+04 6.769e-10
 32.44626     43.3 1.057e+04 4.102e-10
 32.47377     43.2 1.033e+04 2.958e-10
 32.48388     44.1 1.045e+04 3.424e-10
 32.49708     44.0 1.040e+04 3.304e-10
 32.52779     44.6 1.035e+04 3.036e-10
 32.56871     44.8 1.014e+04 2.812e-10
 32.60535     44.8 9.919e+03 2.677e-10
 32.62576     45.9 9.942e+03 2.713e-10
 32.65034     46.2 9.771e+03 2.546e-10
 32.69115     47.0 9.608e+03 2.284e-10
 32.73197     48.0 9.457e+03 1.853e-10
 32.75733     48.8 9.352e+03 1.414e-10
 32.77535     49.8 9.352e+03 1.412e-10
 32.79081     50.0 9.373e+03 1.396e-10
 32.81360     50.3 9.280e+03 1.173e-10
 32.85442     51.0 9.307e+03 1.217e-10
 32.88891     51.1 9.589e+03 1.701e-10
 32.90932     52.2 9.543e+03 1.596e-10
 32.93605     52.3 1.019e+04 2.571e-10
 32.96480     52.3 1.069e+04 3.859e-10
 32.97491     53.0 1.059e+04 3.616e-10
 32.98688     52.4 1.111e+04 4.569e-10
 33.00728     52.2 1.140e+04 6.502e-10
 33.01948     51.8 1.165e+04 8.035e-10
 33.02968     52.0 1.167e+04 8.029e-10
 33.04070     51.7 1.208e+04 8.317e-10
 33.05090     52.4 1.207e+04 8.522e-10
 33.06851     50.5 1.312e+04 9.585e-10
 33.08892     47.2 1.411e+04 1.309e-09
 33.10649     44.1 1.455e+04 2.107e-09
 33.11669     44.6 1.493e+04 2.320e-09
 33.12973     42.9 1.506e+04 3.673e-09
 33.15014     42.2 1.497e+04 5.082e-09
 33.17055     42.8 1.533e+04 6.055e-09
 33.18248     42.2 1.489e+04 5.728e-09
 33.19268     42.7 1.485e+04 5.763e-09
 33.21137     40.9 1.423e+04 4.312e-09
 33.23177     38.8 1.426e+04 3.599e-09
 33.24827     36.6 1.434e+04 3.188e-09
 33.25847     36.1 1.432e+04 4.132e-09
 33.27259     34.6 1.423e+04 3.975e-09
 33.29300     33.9 1.401e+04 3.566e-09
 33.31341     33.6 1.357e+04 2.826e-09
 33.32426     33.2 1.296e+04 1.965e-09
 33.33446     34.0 1.309e+04 2.164e-09
 33.35422     33.2 1.232e+04 1.341e-09
 33.37463     32.3 1.149e+04 8.183e-10
 33.39005     31.4 1.087e+04 5.446e-10
 33.40025     31.7 1.088e+04 5.484e-10
 33.41545     31.1 1.055e+04 4.162e-10
 33.43585     30.7 1.041e+04 3.583e-10
 33.45593     30.5 1.040e+04 3.444e-10
 33.47644     31.3 1.037e+04 3.409e-10
 33.50748     31.2 1.048e+04 3.997e-10
 33.53192     31.2 1.074e+04 5.496e-10
 33.54203     31.4 1.075e+04 5.498e-10
 33.55830     31.2 1.104e+04 6.887e-10
 33.57871     31.2 1.137e+04 8.539e-10
 33.59761     30.9 1.167e+04 1.026e-09
 33.60782     31.0 1.175e+04 1.092e-09
 33.61953     30.7 1.205e+04 1.267e-09
 33.63994     30.3 1.217e+04 1.326e-09
 33.67065     29.7 1.209e+04 1.264e-09
 33.70628     28.7 1.194e+04 1.098e-09
 33.72669     28.7 1.242e+04 1.519e-09
 33.73959     27.6 1.185e+04 1.108e-09
 33.76000     27.8 1.136e+04 8.129e-10
 33.79319     27.4 1.050e+04 4.379e-10
 33.83401     27.4 9.816e+03 2.307e-10
 33.87116     27.5 9.327e+03 1.478e-10
 33.89157     28.2 9.015e+03 1.061e-10
 33.91564     29.1 8.929e+03 9.757e-11
 33.95646     30.4 8.923e+03 9.782e-11
 33.99727     31.7 8.979e+03 1.116e-10
 34.02315     33.0 9.045e+03 1.302e-10
 34.04356     33.8 8.844e+03 1.014e-10
 34.07891     35.0 8.957e+03 1.187e-10
 34.11972     36.1 9.132e+03 1.448e-10
 34.15472     37.1 9.267e+03 1.893e-10
 34.17513     37.9 9.174e+03 1.642e-10
 34.18443     39.1 9.304e+03 2.307e-10
 34.20484     40.2 8.813e+03 1.052e-10
 34.24217     41.5 8.918e+03 1.458e-10
 34.28299     43.2 8.990e+03 1.909e-10
 34.30671     44.7 9.039e+03 2.244e-10
 34.32712     45.3 9.047e+03 2.150e-10
 34.36462     46.5 9.161e+03 2.572e-10
 34.40544     47.6 9.476e+03 3.203e-10
 34.43595     49.0 9.955e+03 4.178e-10
 34.44829     48.6 1.002e+04 4.952e-10
 34.45859     48.8 1.015e+04 5.363e-10
 34.47677     49.4 1.047e+04 7.274e-10
 34.49708     49.3 1.073e+04 8.709e-10
 34.51408     49.5 1.121e+04 1.072e-09
 34.52428     49.9 1.131e+04 1.111e-09
 34.53789     48.8 1.179e+04 1.269e-09
 34.55830     47.8 1.226e+04 1.485e-09
 34.57871     46.7 1.245e+04 1.588e-09
 34.59007     45.1 1.212e+04 1.558e-09
 34.60028     45.0 1.191e+04 1.492e-09
 34.61953     43.9 1.159e+04 1.428e-09
 34.63993     43.2 1.149e+04 1.384e-09
 34.65218     42.7 1.143e+04 1.354e-09
 34.65790     43.8 1.116e+04 1.177e-09
 34.66606     44.4 1.112e+04 1.175e-09
 34.68075     44.1 1.093e+04 1.105e-09
 34.70116     44.0 1.118e+04 1.131e-09
 34.72157     37.4 2.071e+04 1.483e-09
 34.73682     26.0 3.002e+04 5.181e-09
 34.74698     23.4 3.009e+04 8.145e-09
 34.75718     18.7 2.562e+04 2.697e-08
 34.76465     17.6 2.270e+04 4.241e-08
 34.76888     17.7 2.217e+04 4.540e-08
 34.77162     18.8 2.426e+04 3.594e-08
 34.77759     18.1 2.228e+04 5.004e-08
 34.78779     17.7 2.138e+04 5.474e-08
 34.79754     17.3 2.105e+04 5.094e-08
 34.80264     17.3 2.155e+04 4.719e-08
 34.80820     16.1 2.285e+04 3.217e-08
 34.81841     13.2 2.420e+04 1.781e-08
 34.82861      8.0 2.346e+04 8.232e-09
 34.83554      2.0 1.962e+04 4.043e-09
 34.84064     -0.2 1.825e+04 3.473e-09
 34.84902     -3.6 1.612e+04 2.493e-09
 34.86338     -6.9 1.407e+04 1.678e-09
 34.87363     -8.5 1.323e+04 1.618e-09
 34.88105    -11.0 1.149e+04 1.143e-09
 34.89125     -9.7 1.299e+04 1.695e-09
 34.90524    -11.4 1.180e+04 1.273e-09
 34.92565    -11.9 1.153e+04 1.195e-09
 34.93942    -12.0 1.147e+04 1.177e-09
 34.94962    -12.0 1.148e+04 1.177e-09
 34.96646    -12.0 1.141e+04 1.167e-09
 34.98687    -11.7 1.137e+04 1.185e-09
 35.00521    -11.2 1.138e+04 1.226e-09
 35.01541    -11.1 1.132e+04 1.130e-09
 35.02769    -10.5 1.135e+04 1.154e-09
 35.04810     -9.9 1.135e+04 1.161e-09
 35.06850     -9.2 1.132e+04 1.162e-09
 35.08120     -8.4 1.124e+04 1.131e-09
 35.09140     -8.3 1.112e+04 1.030e-09
 35.10932     -7.5 1.105e+04 1.008e-09
 35.12012     -6.7 1.095e+04 9.680e-10
 35.13033     -6.4 1.118e+04 1.133e-09
 35.14699     -5.6 1.099e+04 1.023e-09
 35.15719     -5.4 1.098e+04 9.987e-10
 35.17054     -4.6 1.079e+04 8.999e-10
 35.19095     -3.7 1.057e+04 7.922e-10
 35.21136     -2.8 1.030e+04 6.943e-10
 35.22298     -1.8 1.005e+04 5.933e-10
 35.23318     -1.6 1.017e+04 6.394e-10
 35.25218     -0.7 9.977e+03 5.628e-10
 35.27258      0.2 9.821e+03 4.892e-10
 35.28887      1.4 9.714e+03 4.247e-10
 35.29907      1.5 9.833e+03 4.879e-10
 35.31340      2.1 9.775e+03 4.625e-10
 35.33381      3.3 9.730e+03 4.355e-10
 35.34899      3.7 9.713e+03 4.291e-10
 35.35919      3.8 9.711e+03 4.234e-10
 35.38493      5.5 9.750e+03 4.277e-10
 35.42054      7.3 9.749e+03 4.162e-10
 35.44085      7.8 9.826e+03 4.499e-10
 35.45626      9.1 9.828e+03 4.350e-10
 35.47667      9.3 9.826e+03 4.310e-10
 35.50738     10.5 9.909e+03 4.279e-10
 35.54829     11.6 9.944e+03 4.094e-10
 35.57252     12.7 9.969e+03 3.954e-10
 35.58188     12.9 9.973e+03 3.934e-10
 35.59846     13.6 9.845e+03 3.638e-10
 35.62992     15.0 9.801e+03 3.401e-10
 35.67074     16.3 9.734e+03 3.155e-10
 35.70410     17.7 9.634e+03 2.910e-10
 35.72451     18.2 9.558e+03 2.508e-10
 35.75237     19.9 9.480e+03 2.327e-10
 35.79319     21.5 9.466e+03 2.287e-10
 35.83400     22.9 9.571e+03 2.392e-10
 35.85608     24.0 9.742e+03 3.031e-10
 35.87649     24.8 9.771e+03 2.803e-10
 35.91564     26.0 1.012e+04 4.288e-10
 35.95645     27.2 1.062e+04 6.399e-10
 35.98697     28.3 1.123e+04 9.180e-10
 35.99767     28.1 1.134e+04 9.855e-10
 36.00787     28.2 1.165e+04 1.143e-09
 36.02768     28.2 1.206e+04 1.391e-09
 36.04580     27.5 1.224e+04 1.475e-09
 36.05601     27.3 1.272e+04 1.853e-09
 36.06346     26.8 1.283e+04 1.939e-09
 36.07366     26.5 1.325e+04 2.319e-09
 36.08891     25.7 1.320e+04 2.292e-09
 36.10932     25.0 1.297e+04 2.010e-09
 36.12924     24.3 1.260e+04 1.594e-09
 36.13945     24.1 1.282e+04 1.706e-09
 36.15013     23.2 1.237e+04 1.175e-09
 36.17054     22.1 1.192e+04 7.641e-10
 36.19095     20.6 1.145e+04 4.977e-10
 36.20524     19.0 1.093e+04 3.543e-10
 36.21544     18.3 1.081e+04 3.397e-10
 36.24207     18.1 1.042e+04 2.808e-10
 36.27122     18.2 1.022e+04 2.572e-10
 36.29163     17.6 1.024e+04 2.759e-10
 36.32380     17.9 1.026e+04 2.977e-10
 36.36461     18.1 1.052e+04 3.771e-10
 36.39513     18.6 1.061e+04 4.408e-10
 36.41280     18.2 1.061e+04 4.448e-10
 36.42301     17.6 1.060e+04 4.645e-10
 36.43585     17.4 1.047e+04 4.592e-10
 36.45626     17.2 1.038e+04 4.185e-10
 36.47666     17.1 1.031e+04 3.844e-10
 36.48880     16.9 1.028e+04 3.737e-10
 36.49900     16.2 1.024e+04 3.759e-10
 36.51375     16.0 1.022e+04 3.686e-10
 36.52395     16.3 1.021e+04 3.746e-10
 36.53789     16.0 1.023e+04 3.880e-10
 36.55458     15.8 1.030e+04 4.280e-10
 36.56479     15.2 1.031e+04 4.420e-10
 36.57870     15.3 1.037e+04 4.824e-10
 36.59911     15.5 1.045e+04 5.226e-10
 36.61952     15.7 1.052e+04 5.562e-10
 36.63057     15.9 1.058e+04 5.858e-10
 36.64078     15.0 1.061e+04 5.747e-10
 36.66034     14.8 1.077e+04 6.167e-10
 36.68074     14.1 1.115e+04 7.000e-10
 36.69636     12.7 1.178e+04 8.849e-10
 36.70657     10.4 1.212e+04 1.050e-09
 36.72156      8.9 1.271e+04 1.500e-09
 36.74197      7.9 1.316e+04 2.068e-09
 36.75282      7.5 1.350e+04 2.587e-09
 36.76280      7.7 1.409e+04 3.421e-09
 36.77235      6.7 1.405e+04 3.321e-09
 36.78278      6.9 1.425e+04 3.441e-09
 36.80319      6.8 1.430e+04 3.019e-09
 36.82360      5.9 1.404e+04 2.265e-09
 36.83814      4.0 1.331e+04 1.537e-09
 36.84835      0.5 1.210e+04 1.027e-09
 36.86442     -1.9 1.142e+04 8.523e-10
 36.89513     -3.5 1.130e+04 7.868e-10
 36.93604     -4.5 1.170e+04 9.966e-10
 36.96991     -4.5 1.224e+04 1.360e-09
 36.98505     -6.3 1.271e+04 1.735e-09
 36.99199     -7.8 1.283e+04 1.838e-09
 37.01767     -8.1 1.308e+04 1.985e-09
 37.04581     -7.1 1.291e+04 1.867e-09
 37.05591     -8.7 1.287e+04 1.842e-09
 37.06850     -9.0 1.249e+04 1.525e-09
 37.08891     -9.5 1.187e+04 1.168e-09
 37.10931     -9.6 1.138e+04 9.000e-10
 37.12170     -9.9 1.104e+04 6.995e-10
 37.13191    -11.8 1.065e+04 5.530e-10
 37.15013    -12.7 1.039e+04 4.289e-10
 37.18084    -14.3 1.005e+04 3.326e-10
 37.22175    -14.7 1.017e+04 3.371e-10
 37.25347    -15.6 1.036e+04 3.661e-10
 37.27378    -17.8 1.027e+04 3.830e-10
 37.29299    -19.3 1.015e+04 4.240e-10
 37.31340    -19.8 1.020e+04 4.472e-10
 37.32927    -20.4 1.029e+04 4.755e-10
 37.33947    -21.7 1.021e+04 4.470e-10
 37.35421    -22.5 1.028e+04 4.711e-10
 37.37462    -23.2 1.032e+04 5.003e-10
 37.39503    -23.9 1.037e+04 5.343e-10
 37.41544    -26.0 1.034e+04 5.470e-10
 37.43584    -26.4 1.037e+04 5.755e-10
 37.44963    -26.8 1.038e+04 5.919e-10
 37.45984    -26.7 1.056e+04 6.517e-10
 37.47105    -27.0 1.053e+04 6.527e-10
 37.48125    -28.2 1.055e+04 6.604e-10
 37.49707    -28.1 1.047e+04 6.388e-10
 37.51748    -28.0 1.040e+04 5.931e-10
 37.53684    -28.0 1.033e+04 5.385e-10
 37.54704    -29.4 1.040e+04 5.722e-10
 37.55829    -29.5 1.036e+04 5.412e-10
 37.57870    -29.6 1.035e+04 5.291e-10
 37.59911    -29.9 1.048e+04 5.324e-10
 37.61283    -30.4 1.075e+04 5.799e-10
 37.62303    -32.2 1.108e+04 7.232e-10
 37.63993    -32.8 1.140e+04 8.827e-10
 37.66033    -33.3 1.180e+04 1.139e-09
 37.67850    -33.8 1.233e+04 1.508e-09
 37.68658    -34.8 1.301e+04 2.081e-09
 37.68882    -37.6 1.432e+04 2.987e-09
 37.70115    -38.4 1.524e+04 3.994e-09
 37.72156    -39.3 1.597e+04 5.014e-09
 37.74197    -40.2 1.637e+04 5.794e-09
 37.75461    -41.0 1.639e+04 6.118e-09
 37.76481    -44.2 1.621e+04 6.037e-09
 37.78278    -44.5 1.578e+04 5.534e-09
 37.80319    -44.5 1.523e+04 4.779e-09
 37.82040    -44.3 1.467e+04 3.964e-09
 37.83060    -46.3 1.367e+04 2.465e-09
 37.84401    -46.2 1.308e+04 1.802e-09
 37.86441    -45.4 1.273e+04 1.540e-09
 37.88482    -45.4 1.232e+04 1.246e-09
 37.90747    -46.5 1.137e+04 8.741e-10
 37.92797    -48.7 1.057e+04 6.086e-10
 37.94615    -48.3 1.022e+04 6.295e-10
 37.96218    -48.0 1.023e+04 6.482e-10
 37.97238    -49.0 1.011e+04 6.521e-10
 37.98686    -48.3 1.020e+04 7.316e-10
 38.00727    -47.7 1.045e+04 8.393e-10
 38.02768    -47.2 1.069e+04 9.770e-10
 38.03817    -46.6 1.098e+04 1.141e-09
 38.04837    -47.1 1.110e+04 1.234e-09
 38.06850    -46.6 1.140e+04 1.402e-09
 38.08890    -46.4 1.165e+04 1.541e-09
 38.10396    -46.4 1.181e+04 1.654e-09
 38.11416    -47.3 1.171e+04 1.592e-09
 38.12972    -47.4 1.167e+04 1.599e-09
 38.14645    -47.4 1.150e+04 1.521e-09
 38.15665    -47.6 1.122e+04 1.359e-09
 38.16975    -47.5 1.098e+04 1.219e-09
 38.17995    -48.5 1.068e+04 1.076e-09
 38.19094    -48.7 1.040e+04 9.365e-10
 38.21135    -49.1 1.007e+04 7.870e-10
 38.23176    -49.6 9.692e+03 6.365e-10
 38.24574    -50.3 9.302e+03 5.037e-10
 38.25594    -51.4 9.057e+03 4.314e-10
 38.28288    -52.4 8.601e+03 3.219e-10
 38.32379    -52.9 8.347e+03 2.641e-10
 38.36461    -53.4 8.308e+03 2.502e-10
 38.38562    -55.0 8.682e+03 2.899e-10
 38.38821    -56.2 9.102e+03 3.741e-10
 38.39772    -59.0 9.850e+03 5.413e-10
 38.41543    -59.9 1.042e+04 8.233e-10
 38.43584    -60.1 1.080e+04 1.130e-09
 38.45331    -59.7 1.102e+04 1.375e-09
 38.46351    -60.6 1.142e+04 1.724e-09
 38.47666    -59.7 1.145e+04 1.778e-09
 38.49707    -58.9 1.134e+04 1.576e-09
 38.51747    -58.4 1.104e+04 1.343e-09
 38.52930    -58.1 1.074e+04 1.089e-09
 38.53950    -59.6 1.066e+04 9.313e-10
 38.55829    -59.8 1.025e+04 7.213e-10
 38.57870    -59.7 9.855e+03 5.748e-10
 38.59509    -59.5 9.520e+03 4.780e-10
 38.60529    -61.1 9.272e+03 4.450e-10
 38.61439    -60.4 9.081e+03 3.984e-10
 38.62459    -60.5 9.353e+03 4.680e-10
 38.63992    -59.7 9.187e+03 4.229e-10
 38.66033    -58.9 9.076e+03 3.910e-10
 38.67108    -58.3 9.016e+03 3.710e-10
 38.68128    -59.2 9.034e+03 3.758e-10
 38.70115    -58.4 9.003e+03 3.619e-10
 38.73186    -57.5 9.030e+03 3.531e-10
 38.77277    -55.9 9.046e+03 3.507e-10
 38.80285    -54.3 9.094e+03 3.526e-10
 38.81295    -55.8 9.184e+03 3.799e-10
 38.82360    -55.3 9.212e+03 3.826e-10
 38.84326    -54.6 9.255e+03 3.878e-10
 38.85346    -54.9 9.313e+03 3.959e-10
 38.86441    -54.4 9.399e+03 4.048e-10
 38.87865    -53.9 9.514e+03 4.187e-10
 38.88885    -54.8 9.729e+03 4.672e-10
 38.90523    -54.6 9.987e+03 5.055e-10
 38.92564    -54.7 1.043e+04 5.874e-10
 38.94443    -55.0 1.106e+04 7.567e-10
 38.95464    -56.1 1.161e+04 9.846e-10
 38.96645    -56.3 1.231e+04 1.385e-09
 38.98686    -56.3 1.298e+04 1.985e-09
 39.00727    -56.1 1.356e+04 2.772e-09
 39.02043    -55.5 1.403e+04 3.629e-09
 39.03063    -56.3 1.440e+04 4.244e-09
 39.04809    -55.7 1.468e+04 4.796e-09
 39.06849    -55.2 1.503e+04 5.376e-09
 39.08233    -54.7 1.539e+04 6.152e-09
 39.08985    -54.5 1.468e+04 4.012e-09
 39.09642    -54.9 1.521e+04 4.717e-09
 39.10931    -54.2 1.522e+04 4.012e-09
 39.12972    -53.7 1.517e+04 3.062e-09
 39.15013    -53.5 1.496e+04 2.224e-09
 39.16220    -53.6 1.441e+04 1.540e-09
 39.17241    -54.2 1.439e+04 1.614e-09
 39.19094    -54.6 1.332e+04 1.177e-09
 39.21135    -55.0 1.242e+04 9.582e-10
 39.22799    -55.5 1.201e+04 8.876e-10
 39.23820    -55.5 1.196e+04 9.632e-10
 39.25217    -55.2 1.186e+04 9.934e-10
 39.27257    -54.7 1.179e+04 1.049e-09
 39.29298    -54.0 1.182e+04 1.166e-09
 39.30398    -53.6 1.197e+04 1.284e-09
 39.31200    -53.4 1.217e+04 1.423e-09
 39.32150    -53.3 1.118e+04 5.762e-10
 39.34420    -52.1 1.158e+04 6.936e-10
 39.36997    -51.2 1.206e+04 9.137e-10
 39.38007    -51.5 1.241e+04 1.176e-09
 39.39502    -51.3 1.266e+04 1.345e-09
 39.41543    -51.0 1.298e+04 1.714e-09
 39.43556    -50.9 1.323e+04 2.003e-09
 39.44576    -51.6 1.380e+04 2.645e-09
 39.45625    -51.5 1.403e+04 3.096e-09
 39.47666    -51.3 1.419e+04 3.469e-09
 39.49706    -51.1 1.432e+04 3.821e-09
 39.51155    -50.8 1.446e+04 4.164e-09
 39.52176    -50.6 1.477e+04 5.043e-09
 39.53788    -50.0 1.485e+04 5.284e-09
 39.55027    -49.2 1.489e+04 5.441e-09
 39.56048    -49.0 1.478e+04 5.144e-09
 39.57734    -48.2 1.482e+04 5.268e-09
 39.58754    -47.9 1.466e+04 5.044e-09
 39.59910    -47.0 1.446e+04 4.726e-09
 39.61951    -46.1 1.419e+04 4.257e-09
 39.63992    -45.3 1.390e+04 3.770e-09
 39.65333    -44.4 1.364e+04 3.336e-09
 39.66354    -44.0 1.310e+04 2.293e-09
 39.68074    -43.7 1.281e+04 1.916e-09
 39.71145    -43.7 1.243e+04 1.602e-09
 39.75236    -42.1 1.233e+04 1.576e-09
 39.77924    -41.2 1.256e+04 1.690e-09
 39.79158    -39.4 1.262e+04 1.705e-09
 39.80551    -39.6 1.236e+04 1.202e-09
 39.82369    -39.6 1.315e+04 1.955e-09
 39.84400    -39.6 1.390e+04 2.526e-09
 39.86090    -40.0 1.483e+04 3.574e-09
 39.87110    -40.6 1.468e+04 3.530e-09
 39.88482    -41.1 1.551e+04 5.068e-09
 39.90523    -41.2 1.618e+04 6.941e-09
 39.92563    -41.1 1.676e+04 8.608e-09
 39.93689    -41.0 1.723e+04 9.131e-09
 39.94710    -41.1 1.691e+04 6.407e-09
 39.96130    -41.3 1.742e+04 6.936e-09
 39.96969    -41.9 1.787e+04 5.583e-09
 39.97479    -42.8 1.762e+04 4.390e-09
 39.98681    -44.7 1.756e+04 3.807e-09
 40.00268    -49.0 1.692e+04 2.977e-09
 40.01288    -53.9 1.482e+04 1.778e-09
 40.01822    -58.4 1.417e+04 1.786e-09
 40.02842    -56.1 1.551e+04 1.961e-09
 40.04808    -60.8 1.473e+04 2.140e-09
 40.06847    -64.0 1.462e+04 2.779e-09
 40.08888    -69.1 1.501e+04 3.532e-09
 40.10931    -71.8 1.525e+04 3.659e-09
 40.12972    -75.0 1.536e+04 3.578e-09
 40.14446    -78.5 1.510e+04 3.143e-09
 40.15466    -81.3 1.493e+04 3.400e-09
 40.17053    -83.8 1.444e+04 3.170e-09
 40.19094    -85.5 1.407e+04 2.995e-09
 40.21025    -86.6 1.375e+04 2.793e-09
 40.22045    -87.1 1.350e+04 2.607e-09
 40.23176    -87.5 1.312e+04 2.245e-09
 40.24709    -87.8 1.272e+04 1.844e-09
 40.25729    -88.2 1.265e+04 1.777e-09
 40.27257    -88.4 1.225e+04 1.404e-09
 40.28624    -88.4 1.184e+04 1.078e-09
 40.29644    -89.1 1.141e+04 8.002e-10
 40.31339    -89.3 1.103e+04 6.216e-10
 40.33380    -89.5 1.071e+04 5.058e-10
 40.35203    -89.5 1.049e+04 4.440e-10
 40.36223    -90.0 1.024e+04 3.936e-10
 40.37461    -89.5 1.019e+04 3.854e-10
 40.39502    -89.0 1.019e+04 3.851e-10
 40.41543    -88.5 1.029e+04 3.921e-10
 40.42802    -88.2 1.051e+04 4.298e-10
 40.43822    -88.1 1.041e+04 4.257e-10
 40.45625    -87.6 1.063e+04 4.826e-10
 40.47596    -87.0 1.093e+04 5.736e-10
 40.48616    -86.8 1.096e+04 6.087e-10
 40.49381    -86.2 1.132e+04 7.475e-10
 40.50401    -86.3 1.129e+04 8.279e-10
 40.51747    -85.8 1.176e+04 1.052e-09
 40.53788    -85.3 1.235e+04 1.384e-09
 40.55829    -84.8 1.299e+04 1.847e-09
 40.56980    -84.2 1.361e+04 2.415e-09
 40.58000    -84.1 1.348e+04 2.446e-09
 40.59910    -83.4 1.387e+04 2.891e-09
 40.61951    -82.7 1.403e+04 3.112e-09
 40.63559    -81.9 1.404e+04 3.145e-09
 40.64579    -81.8 1.363e+04 2.700e-09
 40.66033    -80.7 1.341e+04 2.439e-09
 40.68073    -79.6 1.310e+04 1.990e-09
 40.70114    -78.7 1.272e+04 1.547e-09
 40.71158    -78.1 1.231e+04 1.193e-09
 40.71526    -78.3 1.214e+04 9.748e-10
 40.72523    -78.3 1.285e+04 1.331e-09
 40.74196    -77.9 1.258e+04 1.031e-09
 40.76237    -77.6 1.241e+04 8.483e-10
 40.77737    -77.2 1.237e+04 7.615e-10
 40.78757    -77.6 1.190e+04 7.785e-10
 40.80318    -77.1 1.195e+04 7.512e-10
 40.82359    -76.6 1.200e+04 7.462e-10
 40.84316    -76.2 1.228e+04 7.597e-10
 40.85336    -76.8 1.206e+04 8.753e-10
 40.86441    -76.7 1.231e+04 9.584e-10
 40.88482    -76.6 1.252e+04 1.104e-09
 40.90522    -76.4 1.275e+04 1.300e-09
 40.91915    -76.1 1.295e+04 1.524e-09
 40.92935    -76.5 1.312e+04 1.771e-09
 40.94390    -76.1 1.325e+04 1.923e-09
 40.95410    -76.7 1.358e+04 2.279e-09
 40.96645    -76.2 1.360e+04 2.238e-09
 40.98494    -75.8 1.350e+04 2.126e-09
 40.99514    -76.2 1.332e+04 2.007e-09
 41.00726    -75.8 1.320e+04 1.898e-09
 41.02767    -75.4 1.308e+04 1.789e-09
 41.04808    -74.8 1.295e+04 1.685e-09
 41.06093    -74.2 1.279e+04 1.574e-09
 41.07113    -75.0 1.263e+04 1.465e-09
 41.08890    -74.2 1.248e+04 1.373e-09
 41.10930    -73.4 1.227e+04 1.255e-09
 41.12672    -72.4 1.203e+04 1.119e-09
 41.13692    -72.9 1.188e+04 1.068e-09
 41.15012    -71.8 1.161e+04 9.326e-10
 41.17053    -70.7 1.131e+04 7.984e-10
 41.18297    -69.4 1.107e+04 6.839e-10
 41.19318    -69.7 1.099e+04 6.064e-10
 41.20271    -68.3 1.088e+04 5.141e-10
 41.22321    -69.3 1.053e+04 3.681e-10
 41.26256    -66.7 1.028e+04 3.035e-10
 41.30338    -64.3 1.023e+04 2.881e-10
 41.33448    -61.6 1.014e+04 2.809e-10
 41.35489    -62.9 9.740e+03 2.740e-10
 41.38501    -60.3 9.741e+03 2.818e-10
 41.42583    -57.8 9.991e+03 3.158e-10
 41.46605    -55.4 1.049e+04 3.775e-10
 41.48646    -56.8 1.003e+04 3.185e-10
 41.50746    -55.3 1.050e+04 4.217e-10
 41.54827    -53.7 1.099e+04 5.979e-10
 41.58909    -52.1 1.147e+04 8.134e-10
 41.61804    -50.6 1.196e+04 1.040e-09
 41.63845    -52.4 1.149e+04 9.591e-10
 41.65111    -51.0 1.162e+04 9.712e-10
 41.67152    -52.1 1.129e+04 9.260e-10
 41.71154    -50.8 1.085e+04 7.146e-10
 41.74961    -50.1 1.050e+04 5.566e-10
 41.77002    -52.0 1.013e+04 4.701e-10
 41.79317    -51.2 1.008e+04 4.523e-10
 41.83399    -50.2 1.019e+04 4.603e-10
 41.87480    -49.9 1.044e+04 4.939e-10
 41.90150    -51.3 1.074e+04 5.111e-10
 41.91161    -52.8 1.126e+04 5.004e-10
 41.92563    -58.4 1.350e+04 9.306e-10
 41.94604    -64.7 1.544e+04 2.342e-09
 41.96645    -68.7 1.736e+04 5.475e-09
 41.97739    -72.7 1.946e+04 1.021e-08
 41.98760    -75.2 2.026e+04 1.169e-08
 41.99927    -78.2 2.164e+04 1.645e-08
 42.00433    -79.0 2.171e+04 1.531e-08
 42.01019    -82.3 2.249e+04 1.854e-08
 42.01529    -83.8 2.285e+04 1.937e-08
 42.02247    -86.9 2.291e+04 2.200e-08
 42.03267    -89.5 2.245e+04 2.599e-08
 42.04288    -92.1 2.222e+04 3.255e-08
 42.04819    -95.4 2.367e+04 4.258e-08
 42.05329   -103.3 3.002e+04 4.738e-08
 42.06329   -109.1 2.979e+04 9.815e-08
 42.07349   -114.3 2.736e+04 2.134e-07
 42.08108   -118.9 2.489e+04 3.892e-07
 42.08618   -126.2 2.381e+04 4.513e-07
 42.09390   -129.6 2.328e+04 4.583e-07
 42.10410   -133.4 2.383e+04 3.295e-07
 42.11366   -138.9 2.570e+04 1.525e-07
 42.11843   -139.6 2.620e+04 1.077e-07
 42.11908   -146.5 2.767e+04 2.948e-08
 42.12451   -157.4 2.589e+04 8.664e-09
 42.13471   -168.6 1.936e+04 4.361e-09
 42.14492   -174.6 1.689e+04 3.764e-09
 42.15197   -177.4 1.672e+04 3.753e-09
 42.15707   -176.8 1.632e+04 3.266e-09
 42.16533   -178.9 1.676e+04 3.888e-09
 42.17553   -180.6 1.701e+04 4.550e-09
 42.18486   -183.0 1.707e+04 5.512e-09
 42.19512   -183.0 1.665e+04 4.905e-09
 42.20619   -185.1 1.686e+04 5.910e-09
 42.21635   -186.3 1.687e+04 6.028e-09
 42.23170   -187.5 1.655e+04 5.586e-09
 42.25075   -189.2 1.597e+04 5.051e-09
 42.26095   -187.6 1.545e+04 4.338e-09
 42.27257   -188.9 1.451e+04 3.214e-09
 42.29298   -190.2 1.347e+04 2.116e-09
 42.31338   -191.7 1.246e+04 1.355e-09
 42.32674   -192.9 1.163e+04 8.993e-10
 42.33695   -191.1 1.147e+04 8.569e-10
 42.34773   -191.9 1.085e+04 6.048e-10
 42.35793   -191.7 1.063e+04 5.764e-10
 42.37461   -192.0 1.016e+04 4.349e-10
 42.39253   -191.8 9.857e+03 3.515e-10
 42.40273   -190.1 9.798e+03 3.458e-10
 42.41542   -189.7 9.674e+03 3.055e-10
 42.43583   -189.2 9.654e+03 2.933e-10
 42.45624   -188.6 9.664e+03 2.915e-10
 42.46852   -187.9 9.674e+03 2.907e-10
 42.48903   -186.8 9.728e+03 2.910e-10
 42.52786   -184.9 9.678e+03 2.976e-10
 42.56659   -183.4 9.843e+03 3.619e-10
 42.58700   -183.1 9.661e+03 3.514e-10
 42.60029   -182.6 1.045e+04 5.420e-10
 42.62070   -182.5 1.046e+04 5.404e-10
 42.65031   -182.8 1.146e+04 9.127e-10
 42.67619   -184.1 1.210e+04 1.256e-09
 42.68629   -183.8 1.184e+04 1.214e-09
 42.70114   -184.5 1.211e+04 1.369e-09
 42.72155   -185.5 1.229e+04 1.462e-09
 42.74188   -186.5 1.232e+04 1.473e-09
 42.77259   -187.6 1.192e+04 1.300e-09
 42.80328   -189.4 1.133e+04 8.785e-10
 42.81567   -190.1 1.122e+04 7.777e-10
 42.82016   -189.5 1.122e+04 8.037e-10
 42.82807   -189.0 1.086e+04 7.102e-10
 42.84399   -189.5 1.072e+04 6.067e-10
 42.86440   -189.8 1.071e+04 5.673e-10
 42.88366   -190.0 1.072e+04 5.605e-10
 42.89386   -189.6 1.040e+04 4.876e-10
 42.90522   -189.8 1.045e+04 4.884e-10
 42.92563   -190.6 1.077e+04 5.071e-10
 42.94603   -191.7 1.136e+04 6.330e-10
 42.95965   -192.8 1.198e+04 9.488e-10
 42.96985   -192.6 1.173e+04 8.380e-10
 42.98685   -193.3 1.236e+04 1.317e-09
 43.00726   -193.7 1.299e+04 2.020e-09
 43.02544   -193.9 1.356e+04 2.844e-09
 43.03564   -193.3 1.291e+04 2.038e-09
 43.04454   -193.6 1.331e+04 2.571e-09
 43.05475   -194.0 1.321e+04 2.175e-09
 43.06848   -194.6 1.348e+04 2.506e-09
 43.08889   -195.3 1.358e+04 2.680e-09
 43.10143   -195.9 1.359e+04 2.719e-09
 43.11163   -195.7 1.316e+04 2.134e-09
 43.12971   -196.1 1.316e+04 2.174e-09
 43.15012   -196.3 1.292e+04 2.111e-09
 43.16722   -196.4 1.256e+04 1.760e-09
 43.17742   -195.9 1.261e+04 1.778e-09
 43.19093   -195.8 1.224e+04 1.442e-09
 43.21134   -195.6 1.186e+04 1.091e-09
 43.23175   -195.6 1.145e+04 8.049e-10
 43.24321   -195.6 1.106e+04 5.946e-10
 43.25341   -195.1 1.130e+04 6.611e-10
 43.27256   -195.1 1.100e+04 5.159e-10
 43.28361   -195.0 1.077e+04 4.183e-10
 43.29382   -196.5 1.106e+04 5.419e-10
 43.30900   -195.7 1.080e+04 4.728e-10
 43.31920   -195.3 1.091e+04 5.541e-10
 43.33379   -194.1 1.067e+04 4.854e-10
 43.35420   -192.9 1.051e+04 4.285e-10
 43.38491   -191.9 1.036e+04 3.858e-10
 43.42582   -190.6 1.003e+04 3.174e-10
 43.45097   -188.8 9.612e+03 2.440e-10
 43.47138   -187.7 9.768e+03 2.844e-10
 43.50248   -185.9 9.425e+03 2.174e-10
 43.52288   -186.4 9.332e+03 2.026e-10
 43.54827   -184.6 9.093e+03 1.606e-10
 43.58255   -182.9 8.999e+03 1.399e-10
 43.60296   -182.1 9.155e+03 1.521e-10
 43.62990   -180.7 9.072e+03 1.336e-10
 43.67072   -179.4 9.053e+03 1.279e-10
 43.71153   -178.2 9.051e+03 1.271e-10
 43.73453   -177.0 9.093e+03 1.281e-10
 43.75494   -176.8 9.115e+03 1.273e-10
 43.79317   -175.9 9.126e+03 1.269e-10
 43.83398   -175.1 9.243e+03 1.301e-10
 43.86611   -174.3 9.366e+03 1.381e-10
 43.88652   -174.8 9.413e+03 1.403e-10
 43.91562   -174.2 9.509e+03 1.601e-10
 43.95643   -173.5 9.582e+03 1.882e-10
 43.98062   -172.8 9.714e+03 2.316e-10
 44.00103   -174.2 9.760e+03 2.567e-10
 44.01809   -173.4 9.990e+03 3.197e-10
 44.03850   -173.8 1.007e+04 3.458e-10
 44.07888   -173.0 1.025e+04 3.920e-10
 44.11970   -172.2 1.039e+04 4.411e-10
 44.14967   -171.3 1.050e+04 4.907e-10
 44.17008   -171.2 1.016e+04 3.641e-10
 44.20133   -170.0 1.021e+04 3.987e-10
 44.24215   -168.8 1.039e+04 4.894e-10
 44.28124   -167.5 1.073e+04 6.562e-10
 44.30165   -167.3 1.038e+04 4.671e-10
 44.32378   -166.1 1.081e+04 6.657e-10
 44.36459   -165.1 1.125e+04 8.829e-10
 44.40541   -164.5 1.163e+04 1.047e-09
 44.43323   -164.3 1.185e+04 1.110e-09
 44.44577   -163.6 1.168e+04 1.051e-09
 44.45877   -164.0 1.145e+04 1.008e-09
 44.48704   -163.7 1.191e+04 1.179e-09
 44.52786   -163.6 1.221e+04 1.235e-09
 44.56480   -164.4 1.233e+04 1.204e-09
 44.58521   -162.9 1.252e+04 1.457e-09
 44.60949   -163.5 1.261e+04 1.267e-09
 44.65031   -163.9 1.200e+04 8.279e-10
 44.69112   -164.1 1.117e+04 5.431e-10
 44.71679   -164.0 1.072e+04 4.211e-10
 44.73720   -162.1 1.099e+04 5.106e-10
 44.77276   -161.8 1.072e+04 4.336e-10
 44.81357   -161.3 1.064e+04 3.931e-10
 44.84836   -160.3 1.058e+04 3.579e-10
 44.86877   -158.6 1.073e+04 4.384e-10
 44.89520   -157.7 1.070e+04 3.901e-10
 44.91651   -156.8 1.070e+04 3.564e-10
 44.92515   -158.3 1.070e+04 3.970e-10
 44.93436   -157.4 1.074e+04 3.962e-10
 44.94603   -157.0 1.072e+04 3.942e-10
 44.96644   -156.6 1.072e+04 3.946e-10
 44.98685   -156.3 1.074e+04 4.012e-10
 45.00015   -155.9 1.075e+04 4.120e-10
 45.01036   -154.7 1.094e+04 4.186e-10
 45.02766   -154.3 1.096e+04 4.314e-10
 45.04807   -154.0 1.095e+04 4.418e-10
 45.06594   -153.5 1.095e+04 4.493e-10
 45.07614   -152.9 1.102e+04 4.539e-10
 45.08889   -152.6 1.099e+04 4.558e-10
 45.10929   -152.3 1.096e+04 4.566e-10
 45.12970   -151.9 1.091e+04 4.523e-10
 45.14193   -151.5 1.086e+04 4.418e-10
 45.14721   -150.5 1.121e+04 5.048e-10
 45.15539   -150.6 1.113e+04 4.983e-10
 45.17052   -150.1 1.106e+04 4.717e-10
 45.19093   -149.5 1.097e+04 4.421e-10
 45.20772   -148.9 1.089e+04 4.164e-10
 45.21792   -148.7 1.088e+04 4.186e-10
 45.23174   -148.2 1.081e+04 3.911e-10
 45.26245   -147.5 1.076e+04 3.582e-10
 45.28391   -145.9 1.064e+04 3.032e-10
 45.30432   -144.9 1.073e+04 2.924e-10
 45.34418   -143.1 1.055e+04 2.208e-10
 45.37425   -141.4 1.044e+04 1.875e-10
 45.39466   -141.9 1.030e+04 1.316e-10
 45.41548   -140.4 1.027e+04 1.255e-10
 45.43589   -139.1 1.015e+04 9.451e-11
 45.46663   -137.6 1.015e+04 9.216e-11
 45.50745   -136.2 1.015e+04 9.214e-11
 45.54706   -135.2 1.022e+04 9.465e-11
 45.56747   -133.9 1.013e+04 7.601e-11
 45.58908   -133.5 1.036e+04 8.965e-11
 45.62990   -133.3 1.050e+04 1.196e-10
 45.67071   -133.1 1.063e+04 1.633e-10
 45.69904   -132.5 1.073e+04 2.156e-10
 45.71945   -132.8 1.093e+04 3.112e-10
 45.75235   -131.7 1.101e+04 3.839e-10
 45.79316   -130.3 1.104e+04 4.132e-10
 45.83062   -128.5 1.105e+04 4.189e-10
 45.84904   -128.4 1.115e+04 5.003e-10
 45.85240   -127.9 1.099e+04 4.246e-10
 45.87479   -125.6 1.099e+04 4.166e-10
 45.91561   -123.5 1.104e+04 4.185e-10
 45.95643   -122.4 1.150e+04 4.434e-10
 45.98260   -122.1 1.276e+04 6.350e-10
 46.00301   -121.6 1.226e+04 4.914e-10
 46.02776   -122.4 1.361e+04 1.006e-09
 46.04807   -122.7 1.415e+04 1.555e-09
 46.05840   -123.5 1.466e+04 2.700e-09
 46.06860   -122.6 1.469e+04 2.402e-09
 46.08107   -123.2 1.507e+04 3.653e-09
 46.09127   -122.6 1.482e+04 2.790e-09
 46.10929   -123.2 1.493e+04 3.586e-09
 46.12419   -123.9 1.489e+04 3.792e-09
 46.13439   -123.6 1.550e+04 4.216e-09
 46.15011   -124.6 1.547e+04 4.312e-09
 46.17052   -125.5 1.510e+04 4.006e-09
 46.18998   -126.7 1.474e+04 3.049e-09
 46.20018   -127.8 1.636e+04 5.696e-09
 46.21133   -129.0 1.587e+04 4.756e-09
 46.23174   -129.9 1.517e+04 3.565e-09
 46.25215   -130.5 1.428e+04 2.428e-09
 46.26597   -130.5 1.328e+04 1.530e-09
 46.27617   -130.1 1.425e+04 3.162e-09
 46.29297   -129.7 1.333e+04 1.770e-09
 46.30994   -129.4 1.242e+04 9.720e-10
 46.32014   -129.3 1.256e+04 1.150e-09
 46.33176   -129.1 1.166e+04 6.918e-10
 46.34196   -128.8 1.257e+04 1.042e-09
 46.35419   -128.3 1.186e+04 6.410e-10
 46.37460   -127.6 1.129e+04 4.303e-10
 46.39501   -126.9 1.096e+04 3.288e-10
 46.40775   -126.4 1.079e+04 2.833e-10
 46.41795   -126.2 1.089e+04 3.752e-10
 46.44612   -125.4 1.083e+04 3.371e-10
 46.48704   -124.6 1.053e+04 2.709e-10
 46.52785   -123.2 1.015e+04 2.103e-10
 46.54972   -122.0 9.901e+03 1.753e-10
 46.57013   -121.9 9.928e+03 2.245e-10
 46.60949   -120.8 9.722e+03 1.863e-10
 46.65030   -119.7 9.649e+03 1.699e-10
 46.68130   -118.6 9.637e+03 1.668e-10
 46.70171   -118.4 9.498e+03 1.560e-10
 46.73193   -117.3 9.472e+03 1.520e-10
 46.76787   -116.2 9.476e+03 1.514e-10
 46.78828   -115.6 9.502e+03 1.598e-10
 46.81287   -114.6 9.566e+03 1.913e-10
 46.83328   -114.3 9.465e+03 1.385e-10
 46.85438   -113.3 9.498e+03 1.732e-10
 46.89520   -112.2 9.570e+03 2.274e-10
 46.93602   -111.0 9.677e+03 2.977e-10
 46.96486   -109.7 9.778e+03 3.684e-10
 46.98527   -109.3 9.495e+03 2.700e-10
 47.01765   -107.9 9.503e+03 3.108e-10
 47.05846   -106.4 9.482e+03 3.237e-10
 47.09643   -104.8 9.434e+03 3.242e-10
 47.11684   -104.1 9.427e+03 1.939e-10
 47.14010   -102.2 9.231e+03 1.881e-10
 47.18091   -100.2 9.048e+03 1.717e-10
 47.22173    -98.1 8.891e+03 1.507e-10
 47.24602    -95.9 8.772e+03 1.312e-10
 47.25230    -95.5 8.616e+03 1.198e-10
 47.26883    -94.9 8.782e+03 7.549e-11
 47.30336    -92.7 8.654e+03 6.624e-11
 47.34418    -90.4 8.541e+03 6.016e-11
 47.37999    -88.1 8.457e+03 5.771e-11
 47.40040    -87.4 8.546e+03 3.706e-11
 47.42581    -85.0 8.521e+03 3.601e-11
 47.46663    -82.6 8.515e+03 3.589e-11
 47.50744    -80.3 8.504e+03 3.698e-11
 47.53198    -78.0 8.510e+03 4.200e-11
 47.55239    -77.4 8.531e+03 2.829e-11
 47.58908    -75.1 8.465e+03 3.409e-11
 47.62989    -72.9 8.390e+03 4.338e-11
 47.66355    -70.5 8.378e+03 5.567e-11
 47.68396    -69.8 8.225e+03 4.073e-11
 47.70376    -67.4 8.238e+03 5.135e-11
 47.72417    -67.2 8.461e+03 4.058e-11
 47.75234    -64.8 8.433e+03 5.262e-11
 47.79316    -62.3 8.472e+03 6.407e-11
 47.81554    -59.9 8.551e+03 7.289e-11
 47.83595    -59.6 8.509e+03 6.371e-11
 47.87479    -57.1 8.529e+03 7.245e-11
 47.91561    -54.8 8.605e+03 7.805e-11
 47.94711    -52.7 8.743e+03 8.368e-11
 47.96752    -52.1 8.578e+03 8.360e-11
 47.99724    -50.3 8.725e+03 9.701e-11
 48.03805    -48.6 8.892e+03 1.265e-10
 48.07869    -46.9 9.083e+03 1.775e-10
 48.11951    -44.3 9.131e+03 2.443e-10
 48.16050    -42.5 9.358e+03 2.985e-10
 48.18191    -40.9 9.557e+03 3.284e-10
 48.20231    -40.6 9.427e+03 2.690e-10
 48.23067    -39.2 9.689e+03 3.265e-10
 48.25108    -39.6 9.677e+03 2.833e-10
 48.28295    -38.3 9.955e+03 4.076e-10
 48.32377    -37.0 1.026e+04 5.483e-10
 48.36225    -35.6 1.053e+04 6.804e-10
 48.38266    -35.5 1.085e+04 8.380e-10
 48.40540    -34.4 1.100e+04 8.687e-10
 48.44622    -34.0 1.112e+04 8.443e-10
 48.48703    -34.1 1.122e+04 8.420e-10
 48.51423    -34.9 1.161e+04 1.023e-09
 48.53464    -35.6 1.151e+04 9.276e-10
 48.56866    -35.9 1.175e+04 1.160e-09
 48.60948    -36.0 1.165e+04 1.146e-09
 48.63955    -36.0 1.112e+04 8.635e-10
 48.64965    -36.0 1.130e+04 9.012e-10
 48.65582    -36.6 1.106e+04 6.880e-10
 48.66602    -36.3 1.088e+04 6.059e-10
 48.68071    -36.5 1.063e+04 4.959e-10
 48.70112    -36.4 1.054e+04 4.269e-10
 48.73183    -36.2 1.058e+04 3.777e-10
 48.77275    -35.5 1.053e+04 3.468e-10
 48.79779    -34.3 1.032e+04 2.799e-10
 48.81820    -34.2 1.020e+04 2.833e-10
 48.85438    -32.7 1.009e+04 2.540e-10
 48.89519    -31.2 1.000e+04 2.054e-10
 48.92937    -29.9 1.004e+04 1.628e-10
 48.94978    -29.2 1.012e+04 2.518e-10
 48.97683    -28.2 1.020e+04 2.449e-10
 49.01764    -27.5 1.047e+04 2.935e-10
 49.05846    -26.5 1.061e+04 4.164e-10
 49.08135    -25.1 1.084e+04 5.220e-10
 49.09987    -24.4 1.097e+04 6.672e-10
 49.11779    -24.4 1.106e+04 6.934e-10
 49.14009    -23.6 1.125e+04 7.464e-10
 49.18091    -23.0 1.128e+04 7.053e-10
 49.21293    -22.2 1.115e+04 5.233e-10
 49.23334    -22.1 1.117e+04 5.118e-10
 49.26254    -21.1 1.098e+04 3.371e-10
 49.30336    -19.9 1.078e+04 1.964e-10
 49.34417    -18.7 1.063e+04 1.150e-10
 49.36491    -17.5 1.058e+04 8.012e-11
 49.38532    -17.4 1.062e+04 8.382e-11
 49.42581    -15.7 1.058e+04 6.861e-11
 49.46662    -13.8 1.060e+04 6.442e-11
 49.49649    -12.5 1.098e+04 6.693e-11
 49.51690    -13.9 1.176e+04 8.109e-11
 49.54825    -14.6 1.173e+04 1.680e-10
 49.57553    -13.2 1.145e+04 4.055e-10
 49.59594    -12.3 1.179e+04 1.009e-09
 49.62806    -10.4 1.295e+04 1.538e-09
 49.64847     -9.9 1.238e+04 1.158e-09
 49.67070    -11.0 1.290e+04 7.191e-10
 49.71152    -14.4 1.253e+04 6.289e-10
 49.75234    -15.2 1.227e+04 8.289e-10
 49.78005    -14.5 1.244e+04 1.015e-09
 49.80046    -14.1 1.205e+04 8.369e-10
 49.83397    -13.5 1.208e+04 7.186e-10
 49.87478    -13.4 1.240e+04 4.822e-10
 49.91162    -14.3 1.230e+04 3.546e-10
 49.93203    -13.3 1.215e+04 2.313e-10
 49.95642    -14.0 1.185e+04 2.231e-10
 49.99723    -13.6 1.144e+04 2.969e-10
 50.03327    -12.2 1.135e+04 3.221e-10
 50.05368    -11.7 1.141e+04 2.306e-10
 50.06361    -11.0 1.137e+04 2.310e-10
 50.08402     -9.7 1.168e+04 2.775e-10
 50.11968     -9.2 1.138e+04 2.721e-10
 50.16050     -7.9 1.100e+04 2.151e-10
 50.19518     -6.2 1.100e+04 1.346e-10
 50.21559     -5.7 1.096e+04 1.941e-10
 50.24213     -4.4 1.114e+04 1.122e-10
 50.28295     -3.9 1.141e+04 7.006e-11
 50.32376     -3.5 1.139e+04 6.326e-11
 50.34717     -2.9 1.111e+04 7.987e-11
 50.36758     -2.6 1.124e+04 1.590e-10
 50.40539     -1.0 1.113e+04 2.277e-10
 50.44621      0.9 1.133e+04 2.830e-10
 50.47874      2.4 1.156e+04 2.976e-10
 50.49915      1.4 1.181e+04 4.959e-10
 50.51142      2.4 1.171e+04 5.088e-10
 50.53183      2.0 1.186e+04 6.258e-10
 50.56866      3.6 1.171e+04 5.742e-10
 50.60948      4.7 1.194e+04 5.106e-10
 50.63073      4.6 1.262e+04 5.024e-10
 50.65114      3.6 1.220e+04 3.799e-10
 50.69111      2.6 1.235e+04 5.101e-10
 50.73192      3.3 1.227e+04 7.439e-10
 50.76230      4.3 1.150e+04 7.948e-10
 50.78271      4.8 1.115e+04 4.343e-10
 50.81356      6.8 1.087e+04 2.476e-10
 50.85437      8.1 1.091e+04 1.165e-10
 50.89388      8.9 1.107e+04 6.445e-11
 50.91429      8.7 1.097e+04 4.850e-11
 50.93601     10.2 1.094e+04 4.531e-11
 50.96916     12.0 1.099e+04 5.075e-11
 50.98957     12.6 1.102e+04 5.289e-11
 51.01764     14.3 1.109e+04 6.674e-11
 51.04586     15.9 1.108e+04 9.602e-11
 51.06627     16.1 1.114e+04 1.134e-10
 51.09927     18.2 1.114e+04 1.706e-10
 51.14009     20.5 1.126e+04 2.133e-10
 51.17744     22.4 1.129e+04 2.088e-10
 51.19785     22.8 1.138e+04 2.655e-10
 51.22172     24.6 1.136e+04 2.136e-10
 51.26254     26.4 1.134e+04 1.525e-10
 51.30335     27.7 1.141e+04 1.054e-10
 51.32942     28.7 1.139e+04 8.073e-11
 51.34983     29.3 1.127e+04 1.476e-10
 51.38498     30.7 1.128e+04 1.208e-10
 51.42580     32.2 1.125e+04 1.063e-10
 51.44730     33.7 1.115e+04 1.012e-10
 51.46209     34.3 1.117e+04 1.425e-10
 51.48141     35.5 1.121e+04 2.536e-10
 51.50743     37.1 1.121e+04 1.912e-10
 51.54825     38.6 1.123e+04 1.406e-10
 51.58907     39.7 1.112e+04 1.158e-10
 51.61298     40.9 1.108e+04 1.181e-10
 51.63339     42.1 1.124e+04 1.453e-10
 51.67070     43.1 1.121e+04 1.583e-10
 51.71151     44.3 1.124e+04 2.125e-10
 51.74456     45.8 1.132e+04 3.104e-10
 51.76497     46.2 1.153e+04 3.434e-10
 51.79315     47.6 1.167e+04 5.061e-10
 51.83396     49.1 1.188e+04 7.081e-10
 51.87478     50.5 1.224e+04 9.220e-10
 51.89644     51.0 1.243e+04 1.103e-09
 51.90630     51.4 1.268e+04 1.258e-09
 51.91515     51.1 1.252e+04 1.165e-09
 51.92560     51.5 1.264e+04 1.290e-09
 51.94601     52.1 1.277e+04 1.457e-09
 51.96213     52.7 1.282e+04 1.622e-09
 51.97234     52.4 1.302e+04 1.654e-09
 51.98683     53.0 1.314e+04 1.871e-09
 52.00724     53.7 1.319e+04 2.071e-09
 52.02764     54.4 1.321e+04 2.210e-09
 52.03813     54.9 1.340e+04 2.286e-09
 52.04833     54.2 1.376e+04 2.838e-09
 52.06846     54.7 1.401e+04 3.279e-09
 52.08887     55.2 1.426e+04 3.631e-09
 52.10391     55.4 1.448e+04 3.860e-09
 52.11412     55.1 1.483e+04 3.938e-09
 52.12969     54.9 1.531e+04 4.219e-09
 52.14392     54.2 1.582e+04 4.798e-09
 52.15413     54.8 1.547e+04 4.411e-09
 52.16970     54.0 1.589e+04 5.126e-09
 52.17991     52.8 1.589e+04 4.672e-09
 52.19091     52.7 1.597e+04 5.559e-09
 52.21132     53.1 1.582e+04 6.168e-09
 52.23173     53.7 1.565e+04 6.100e-09
 52.24569     54.6 1.535e+04 5.609e-09
 52.25590     53.9 1.445e+04 2.950e-09
 52.27254     54.6 1.415e+04 2.216e-09
 52.29295     55.1 1.392e+04 1.531e-09
 52.31148     54.9 1.372e+04 1.064e-09
 52.33199     52.0 1.221e+04 4.061e-10
 52.36278     52.3 1.167e+04 3.377e-10
 52.38319     51.9 1.146e+04 2.350e-10
 52.40539     52.6 1.132e+04 2.370e-10
 52.44325     53.2 1.145e+04 2.736e-10
 52.46366     53.1 1.078e+04 2.588e-10
 52.48702     53.8 1.100e+04 3.143e-10
 52.52784     54.7 1.126e+04 3.983e-10
 52.56865     55.8 1.156e+04 5.164e-10
 52.59524     57.0 1.177e+04 6.071e-10
 52.61565     56.7 1.139e+04 4.734e-10
 52.65029     57.8 1.143e+04 4.576e-10
 52.69110     59.1 1.150e+04 3.994e-10
 52.72681     60.2 1.160e+04 3.444e-10
 52.74722     59.8 1.107e+04 3.164e-10
 52.77274     61.3 1.110e+04 3.208e-10
 52.81355     62.8 1.131e+04 3.585e-10
 52.84083     63.5 1.142e+04 3.953e-10
 52.86124     64.3 1.150e+04 3.649e-10
 52.87870     65.1 1.153e+04 4.358e-10
 52.88881     64.9 1.150e+04 5.244e-10
 52.90519     65.9 1.163e+04 6.230e-10
 52.92560     66.9 1.183e+04 7.190e-10
 52.94439     67.9 1.204e+04 7.690e-10
 52.95459     67.9 1.211e+04 8.943e-10
 52.96642     68.6 1.213e+04 8.872e-10
 52.98683     69.5 1.209e+04 8.487e-10
 53.00723     70.4 1.198e+04 7.666e-10
 53.02038     71.4 1.184e+04 6.600e-10
 53.03068     70.9 1.171e+04 6.134e-10
 53.05845     72.8 1.153e+04 4.610e-10
 53.09927     74.5 1.135e+04 3.458e-10
 53.14008     76.2 1.126e+04 2.876e-10
 53.16236     77.9 1.127e+04 2.844e-10
 53.18277     78.4 1.125e+04 2.292e-10
 53.22171     79.5 1.133e+04 2.403e-10
 53.25223     80.6 1.135e+04 2.555e-10
 53.27254     80.8 1.136e+04 2.802e-10
 53.29295     80.6 1.157e+04 3.194e-10
 53.30394     78.5 1.306e+04 4.831e-10
 53.30947     73.0 1.700e+04 9.941e-10
 53.31883     71.4 1.896e+04 1.303e-09
 53.32856     64.5 2.277e+04 2.955e-09
 53.33674     59.1 2.186e+04 7.281e-09
 53.34184     58.7 1.967e+04 1.414e-08
 53.34897     59.1 1.866e+04 2.936e-08
 53.35918     60.3 1.862e+04 5.123e-08
 53.36938     61.8 1.919e+04 7.528e-08
 53.37473     62.7 1.996e+04 8.300e-08
 53.37984     63.2 2.013e+04 8.846e-08
 53.38979     63.3 2.031e+04 7.675e-08
 53.39999     63.1 2.093e+04 5.415e-08
 53.40763     61.5 2.182e+04 3.223e-08
 53.41273     59.6 2.166e+04 2.306e-08
 53.42040     56.8 2.106e+04 1.406e-08
 53.43547     53.5 1.870e+04 8.394e-09
 53.44572     49.0 1.569e+04 5.170e-09
 53.45621     48.6 1.426e+04 3.978e-09
 53.47662     49.3 1.396e+04 3.142e-09
 53.49703     49.7 1.381e+04 2.275e-09
 53.51151     49.5 1.346e+04 1.575e-09
 53.52171     49.4 1.381e+04 1.886e-09
 53.53755     49.4 1.319e+04 1.368e-09
 53.54775     49.6 1.325e+04 1.551e-09
 53.55825     49.5 1.272e+04 1.158e-09
 53.57740     49.2 1.183e+04 7.130e-10
 53.59790     50.4 1.223e+04 7.159e-10
 53.62988     49.3 1.106e+04 3.675e-10
 53.67069     48.7 1.063e+04 2.678e-10
 53.70907     48.5 1.068e+04 2.691e-10
 53.72948     47.2 1.106e+04 4.078e-10
 53.75233     46.9 1.133e+04 6.189e-10
 53.77682     47.3 1.167e+04 8.674e-10
 53.79722     46.7 1.127e+04 7.610e-10
 53.83396     47.0 1.132e+04 8.916e-10
 53.86105     47.5 1.127e+04 8.810e-10
 53.88146     46.8 1.209e+04 1.269e-09
 53.91559     47.7 1.174e+04 1.130e-09
 53.95641     49.1 1.128e+04 8.821e-10
 53.99263     50.8 1.081e+04 6.255e-10
 54.01304     49.9 1.141e+04 7.289e-10
 54.03804     51.7 1.096e+04 5.365e-10
 54.07886     53.5 1.058e+04 4.399e-10
 54.11967     55.7 1.047e+04 4.317e-10
 54.14461     58.1 1.045e+04 4.416e-10
 54.16502     57.5 1.110e+04 5.241e-10
 54.20130     59.7 1.107e+04 5.587e-10
 54.23455     61.9 1.106e+04 6.020e-10
 54.25496     61.7 1.082e+04 5.928e-10
 54.27619     63.9 1.095e+04 6.723e-10
 54.29660     63.2 1.105e+04 6.858e-10
 54.32375     65.3 1.110e+04 7.455e-10
 54.36457     67.3 1.116e+04 7.541e-10
 54.40538     69.2 1.116e+04 7.472e-10
 54.42817     71.1 1.117e+04 7.245e-10
 54.44858     70.6 1.094e+04 4.979e-10
 54.48702     72.8 1.092e+04 4.248e-10
 54.51753     74.0 1.088e+04 3.936e-10
 54.53784     74.7 1.087e+04 3.678e-10
 54.55965     76.2 1.070e+04 3.618e-10
 54.58016     75.8 1.056e+04 3.138e-10
 54.60947     78.0 1.047e+04 3.025e-10
 54.65028     80.2 1.039e+04 2.908e-10
 54.69110     82.3 1.032e+04 2.795e-10
 54.71173     84.5 1.024e+04 2.699e-10
 54.71283     83.9 1.053e+04 3.267e-10
 54.72271     84.3 1.061e+04 3.442e-10
 54.74192     85.5 1.058e+04 3.448e-10
 54.76233     86.5 1.053e+04 3.441e-10
 54.77732     87.6 1.046e+04 3.449e-10
 54.78753     87.2 1.089e+04 4.684e-10
 54.80315     88.3 1.085e+04 4.580e-10
 54.82356     89.3 1.087e+04 4.559e-10
 54.84311     90.3 1.091e+04 4.580e-10
 54.85332     89.2 1.213e+04 7.755e-10
 54.86437     89.9 1.242e+04 8.134e-10
 54.88478     90.5 1.261e+04 8.597e-10
 54.90519     91.1 1.275e+04 8.921e-10
 54.91910     91.8 1.266e+04 9.179e-10
 54.92931     90.1 1.314e+04 1.703e-09
 54.94138     90.9 1.297e+04 1.654e-09
 54.95158     90.7 1.365e+04 2.221e-09
 54.96641     91.5 1.346e+04 2.146e-09
 54.98489     92.2 1.336e+04 2.131e-09
 54.99510     91.2 1.374e+04 2.776e-09
 55.00723     91.8 1.372e+04 2.643e-09
 55.02764     92.6 1.371e+04 2.564e-09
 55.04805     93.4 1.369e+04 2.587e-09
 55.06088     94.1 1.374e+04 2.651e-09
 55.07109     92.4 1.420e+04 2.088e-09
 55.08886     92.7 1.442e+04 1.840e-09
 55.10927     92.5 1.478e+04 1.625e-09
 55.12667     91.6 1.494e+04 1.540e-09
 55.13688     86.7 1.407e+04 1.435e-09
 55.15009     85.5 1.408e+04 1.533e-09
 55.17025     84.3 1.399e+04 1.685e-09
 55.18045     84.4 1.360e+04 1.698e-09
 55.19090     83.6 1.369e+04 2.080e-09
 55.20266     83.2 1.383e+04 2.453e-09
 55.21287     82.1 1.395e+04 2.350e-09
 55.23172     82.1 1.394e+04 2.189e-09
 55.25213     81.9 1.389e+04 1.847e-09
 55.26845     81.4 1.372e+04 1.442e-09
 55.27866     78.9 1.284e+04 8.814e-10
 55.29294     77.9 1.239e+04 7.112e-10
 55.31335     76.9 1.203e+04 6.180e-10
 55.33376     76.3 1.172e+04 5.982e-10
 55.34444     76.1 1.167e+04 6.009e-10
 55.35465     76.1 1.156e+04 5.842e-10
 55.37457     76.3 1.149e+04 6.047e-10
 55.39498     76.6 1.139e+04 6.267e-10
 55.40932     76.8 1.138e+04 6.224e-10
 55.41436     77.1 1.163e+04 6.640e-10
 55.42044     77.3 1.169e+04 6.611e-10
 55.43580     77.4 1.164e+04 6.609e-10
 55.45621     77.4 1.156e+04 6.479e-10
 55.47602     77.1 1.172e+04 6.395e-10
 55.48622     76.3 1.301e+04 7.537e-10
 55.49702     74.3 1.397e+04 1.005e-09
 55.51743     72.1 1.469e+04 1.461e-09
 55.53784     70.2 1.507e+04 2.173e-09
 55.55201     69.0 1.517e+04 3.093e-09
 55.56222     69.6 1.583e+04 5.206e-09
 55.57866     69.0 1.560e+04 5.361e-09
 55.59906     68.4 1.526e+04 5.258e-09
 55.61780     67.2 1.505e+04 4.732e-09
 55.62800     67.9 1.515e+04 5.059e-09
 55.63819     65.4 1.561e+04 4.859e-09
 55.64839     61.9 1.773e+04 7.014e-09
 55.66029     56.7 1.871e+04 8.674e-09
 55.68070     53.1 1.850e+04 8.971e-09
 55.69379     51.4 1.769e+04 7.951e-09
 55.70400     51.9 1.738e+04 6.897e-09
 55.72151     51.2 1.629e+04 4.721e-09
 55.74192     50.0 1.534e+04 2.296e-09
 55.75958     47.9 1.378e+04 9.365e-10
 55.76978     49.0 1.398e+04 1.003e-09
 55.79304     42.2 1.172e+04 2.839e-10
 55.82556     40.2 9.468e+03 1.290e-10
 55.84597     41.5 9.506e+03 1.135e-10
 55.87477     42.1 9.030e+03 7.891e-11
 55.91559     44.2 8.981e+03 6.146e-11
 55.95640     46.3 9.009e+03 4.784e-11
 55.97755     48.2 8.888e+03 4.162e-11
 55.99796     48.4 8.872e+03 4.154e-11
 56.03803     50.3 8.853e+03 4.186e-11
 56.07885     52.3 8.889e+03 4.369e-11
 56.10633     54.3 9.034e+03 4.943e-11
 56.11619     53.6 9.218e+03 5.901e-11
 56.12953     52.6 9.505e+03 1.014e-10
 56.16048     54.7 9.990e+03 1.668e-10
 56.20130     56.9 1.055e+04 2.793e-10
 56.23181     57.4 1.082e+04 3.759e-10
 56.25071     57.7 1.112e+04 5.239e-10
 56.26091     56.7 1.178e+04 9.903e-10
 56.27253     57.4 1.224e+04 1.344e-09
 56.29294     58.2 1.275e+04 1.728e-09
 56.31335     59.0 1.330e+04 2.082e-09
 56.32670     59.5 1.378e+04 2.357e-09
 56.33690     58.0 1.477e+04 3.343e-09
 56.34520     58.0 1.505e+04 3.298e-09
 56.35541     57.9 1.437e+04 2.403e-09
 56.37457     57.8 1.437e+04 2.388e-09
 56.39249     57.7 1.435e+04 2.406e-09
 56.40269     55.5 1.430e+04 2.704e-09
 56.41539     55.6 1.428e+04 2.739e-09
 56.43580     55.8 1.427e+04 2.895e-09
 56.45620     56.0 1.446e+04 3.273e-09
 56.46848     56.3 1.484e+04 3.951e-09
 56.47868     55.0 1.470e+04 3.789e-09
 56.49702     55.7 1.503e+04 4.507e-09
 56.51743     56.5 1.549e+04 4.941e-09
 56.53427     57.3 1.593e+04 5.106e-09
 56.54447     55.9 1.465e+04 2.515e-09
 56.55825     56.3 1.440e+04 2.236e-09
 56.57407     56.6 1.394e+04 1.919e-09
 56.58428     57.9 1.501e+04 2.589e-09
 56.59906     57.8 1.434e+04 2.013e-09
 56.61026     57.6 1.353e+04 1.619e-09
 56.62046     55.6 1.225e+04 8.928e-10
 56.63988     56.2 1.212e+04 8.717e-10
 56.66029     57.2 1.220e+04 8.659e-10
 56.67605     58.0 1.231e+04 8.695e-10
 56.68625     56.9 1.223e+04 6.792e-10
 56.70110     57.3 1.256e+04 7.135e-10
 56.72151     57.4 1.305e+04 7.930e-10
 56.74184     57.0 1.356e+04 9.359e-10
 56.76224     55.0 1.392e+04 1.168e-09
 56.78273     54.3 1.427e+04 1.584e-09
 56.80294     53.6 1.468e+04 2.333e-09
 56.81315     53.3 1.462e+04 3.336e-09
 56.81783     52.9 1.516e+04 4.401e-09
 56.82803     51.6 1.502e+04 4.308e-09
 56.84396     51.5 1.543e+04 5.387e-09
 56.86437     51.7 1.570e+04 6.198e-09
 56.88361     51.9 1.569e+04 6.071e-09
 56.89382     51.7 1.510e+04 4.685e-09
 56.90518     52.1 1.489e+04 3.804e-09
 56.92559     52.3 1.460e+04 2.818e-09
 56.94600     52.1 1.428e+04 1.994e-09
 56.95961     51.8 1.388e+04 1.399e-09
 56.96981     50.6 1.314e+04 8.998e-10
 56.98682     50.5 1.271e+04 6.846e-10
 57.00722     50.6 1.239e+04 5.453e-10
 57.02539     51.0 1.219e+04 4.591e-10
 57.03560     50.5 1.204e+04 3.540e-10
 57.04202     51.4 1.194e+04 3.130e-10
 57.05222     51.3 1.193e+04 3.477e-10
 57.06845     51.6 1.192e+04 3.343e-10
 57.09128     53.4 1.192e+04 3.617e-10
 57.11179     53.5 1.155e+04 2.553e-10
 57.14007     55.8 1.144e+04 2.448e-10
 57.18089     57.9 1.145e+04 2.481e-10
 57.22170     59.9 1.145e+04 2.568e-10
 57.24336     61.8 1.143e+04 2.642e-10
 57.26377     62.0 1.125e+04 1.944e-10
 57.30334     63.9 1.123e+04 1.987e-10
 57.34415     65.8 1.121e+04 1.980e-10
 57.37494     67.6 1.114e+04 1.938e-10
 57.39535     67.9 1.113e+04 1.693e-10
 57.42579     69.7 1.108e+04 1.644e-10
 57.46660     71.6 1.100e+04 1.575e-10
 57.49995     73.5 1.093e+04 1.526e-10
 57.51946     73.4 1.110e+04 1.552e-10
 57.52692     73.7 1.112e+04 1.485e-10
 57.54823     75.7 1.112e+04 1.522e-10
 57.58905     77.7 1.116e+04 1.643e-10
 57.62987     79.8 1.121e+04 1.832e-10
 57.65850     82.0 1.126e+04 2.056e-10
 57.67891     82.2 1.130e+04 2.241e-10
 57.71150     84.4 1.132e+04 2.498e-10
 57.75232     86.6 1.133e+04 2.726e-10
 57.79007     88.9 1.130e+04 2.892e-10
 57.81048     89.0 1.130e+04 2.947e-10
 57.83395     91.3 1.128e+04 3.082e-10
 57.87476     93.4 1.128e+04 3.208e-10
 57.91558     95.5 1.131e+04 3.440e-10
 57.94206     97.5 1.132e+04 3.724e-10
 57.96247     97.3 1.143e+04 4.108e-10
 57.97810     98.9 1.159e+04 5.086e-10
 57.99851     99.0 1.160e+04 5.238e-10
 58.03803    100.5 1.191e+04 7.079e-10
 58.07363    101.9 1.222e+04 9.235e-10
 58.09404    100.8 1.268e+04 1.221e-09
 58.11966    101.5 1.276e+04 1.241e-09
 58.16048    102.1 1.269e+04 1.181e-09
 58.20129    102.8 1.251e+04 1.034e-09
 58.22562    103.5 1.225e+04 8.219e-10
 58.24603    101.7 1.213e+04 7.838e-10
 58.28293    102.4 1.185e+04 6.074e-10
 58.32374    103.3 1.155e+04 4.673e-10
 58.35719    104.3 1.127e+04 3.624e-10
 58.37760    103.2 1.152e+04 5.292e-10
 58.40537    104.6 1.123e+04 4.021e-10
 58.43584    106.2 1.091e+04 2.822e-10
 58.45625    107.3 1.100e+04 3.538e-10
 58.48701    109.1 1.074e+04 2.630e-10
 58.50918    110.9 1.052e+04 1.953e-10
 58.52959    110.0 1.054e+04 2.002e-10
 58.56864    111.9 1.029e+04 1.658e-10
 58.60946    114.1 1.022e+04 1.630e-10
 58.64075    116.4 1.021e+04 1.636e-10
 58.66116    115.4 1.010e+04 1.599e-10
 58.69109    117.6 1.012e+04 1.671e-10
 58.73190    119.6 1.019e+04 1.850e-10
 58.77233    121.5 1.029e+04 2.136e-10
 58.79274    120.4 1.026e+04 1.952e-10
 58.81354    122.0 1.038e+04 2.176e-10
 58.85435    123.5 1.049e+04 2.375e-10
 58.89358    124.8 1.058e+04 2.464e-10
 58.91399    125.7 1.069e+04 2.838e-10
 58.92431    126.7 1.072e+04 2.853e-10
 58.94472    125.2 1.073e+04 2.584e-10
 58.97680    126.0 1.076e+04 2.755e-10
 59.01762    126.7 1.078e+04 2.900e-10
 59.05589    127.4 1.081e+04 3.038e-10
 59.07630    126.0 1.117e+04 3.783e-10
 59.09925    126.6 1.126e+04 4.179e-10
 59.14007    127.1 1.135e+04 4.447e-10
 59.18088    127.1 1.149e+04 4.757e-10
 59.20787    127.3 1.163e+04 5.228e-10
 59.22828    125.8 1.191e+04 6.654e-10
 59.25221    126.2 1.192e+04 6.765e-10
 59.27252    126.0 1.201e+04 7.163e-10
 59.28367    125.4 1.217e+04 8.097e-10
 59.29387    123.8 1.233e+04 9.570e-10
 59.31334    123.3 1.258e+04 1.123e-09
 59.33375    122.8 1.291e+04 1.332e-09
 59.34946    122.4 1.326e+04 1.576e-09
 59.35966    121.0 1.350e+04 1.796e-09
 59.37153    120.2 1.368e+04 1.972e-09
 59.38173    119.6 1.376e+04 2.328e-09
 59.39497    118.6 1.377e+04 2.319e-09
 59.41524    117.6 1.371e+04 2.228e-09
 59.42545    116.0 1.345e+04 2.003e-09
 59.43579    115.3 1.317e+04 1.814e-09
 59.45620    114.7 1.292e+04 1.650e-09
 59.47661    114.2 1.275e+04 1.518e-09
 59.49124    113.6 1.264e+04 1.400e-09
 59.50144    112.4 1.250e+04 1.228e-09
 59.51742    111.7 1.235e+04 1.101e-09
 59.53783    111.0 1.214e+04 9.661e-10
 59.55702    110.3 1.189e+04 8.322e-10
 59.56723    108.9 1.163e+04 6.911e-10
 59.57865    108.6 1.139e+04 6.038e-10
 59.59905    108.4 1.118e+04 5.376e-10
 59.61060    108.4 1.095e+04 4.639e-10
 59.62081    108.5 1.096e+04 4.650e-10
 59.63302    108.5 1.083e+04 4.269e-10
 59.64332    107.8 1.077e+04 3.907e-10
 59.67068    108.7 1.041e+04 2.922e-10
 59.71149    109.4 1.001e+04 2.133e-10
 59.75231    110.4 9.733e+03 1.686e-10
 59.77499    111.8 9.606e+03 1.476e-10
 59.79540    111.1 9.618e+03 1.205e-10
 59.82946    112.8 9.588e+03 1.138e-10
 59.84987    113.3 9.523e+03 1.149e-10
 59.87476    115.2 9.529e+03 1.153e-10
 59.90657    117.1 9.564e+03 1.169e-10
 59.92698    116.7 9.540e+03 1.087e-10
 59.95639    118.4 9.593e+03 1.127e-10
 59.99721    120.1 9.677e+03 1.220e-10
 60.03802    121.6 9.765e+03 1.372e-10
 60.07884    122.6 9.810e+03 1.327e-10
 60.11966    123.7 9.865e+03 1.341e-10
 60.16047    124.7 9.905e+03 1.352e-10
 60.19013    125.4 9.974e+03 1.391e-10
 60.21054    124.5 1.000e+04 1.367e-10
 60.24210    124.6 1.023e+04 1.522e-10
 60.28292    124.5 1.053e+04 1.934e-10
 60.30761    124.4 1.073e+04 2.480e-10
 60.32598    125.0 1.059e+04 2.533e-10
 60.34211    123.8 1.058e+04 2.787e-10
 60.36455    124.1 1.048e+04 2.796e-10
 60.40537    124.5 1.038e+04 2.617e-10
 60.44619    125.0 1.027e+04 2.262e-10
 60.47369    125.5 1.011e+04 1.879e-10
 60.49410    124.6 9.725e+03 1.376e-10
 60.52782    125.2 9.682e+03 1.286e-10
 60.56863    126.0 9.705e+03 1.311e-10
 60.60526    126.7 9.818e+03 1.447e-10
 60.62567    126.3 9.835e+03 1.469e-10
 60.65027    126.8 1.029e+04 2.056e-10
 60.69108    126.8 1.085e+04 3.051e-10
 60.73190    126.6 1.122e+04 3.976e-10
 60.75715    126.2 1.154e+04 4.995e-10
 60.76726    125.7 1.151e+04 4.959e-10
 60.77536    125.2 1.153e+04 5.339e-10
 60.78556    126.2 1.156e+04 5.541e-10
 60.81343    126.4 1.165e+04 5.754e-10
 60.85435    126.6 1.165e+04 5.776e-10
 60.88882    126.6 1.166e+04 5.632e-10
 60.90923    126.8 1.154e+04 4.931e-10
 60.93598    126.5 1.164e+04 4.582e-10
 60.97680    126.4 1.165e+04 3.815e-10
 61.01761    126.5 1.159e+04 2.972e-10
 61.04081    126.6 1.147e+04 2.310e-10
 61.06122    127.0 1.140e+04 2.243e-10
 61.09925    127.4 1.124e+04 1.970e-10
 61.14006    128.0 1.111e+04 1.931e-10
 61.17238    128.8 1.109e+04 1.929e-10
 61.19279    129.3 1.117e+04 1.981e-10
 61.22169    130.0 1.114e+04 1.958e-10
 61.24350    130.9 1.111e+04 1.891e-10
 61.26390    132.5 1.129e+04 2.207e-10
 61.30333    133.2 1.129e+04 2.180e-10
 61.32437    133.9 1.129e+04 2.114e-10
 61.34477    134.1 1.125e+04 1.938e-10
 61.38496    134.6 1.129e+04 1.845e-10
 61.42578    135.1 1.130e+04 1.842e-10
 61.45594    135.5 1.135e+04 1.866e-10
 61.47635    135.4 1.133e+04 1.796e-10
 61.50741    135.6 1.146e+04 1.961e-10
 61.54822    135.7 1.159e+04 2.309e-10
 61.58752    135.8 1.171e+04 2.800e-10
 61.60793    135.5 1.170e+04 2.907e-10
 61.62986    135.6 1.181e+04 3.483e-10
 61.67067    135.7 1.190e+04 3.946e-10
 61.70124    136.1 1.197e+04 4.221e-10
 61.72164    135.9 1.208e+04 4.570e-10
 61.73950    136.4 1.206e+04 4.561e-10
 61.75991    136.0 1.208e+04 4.621e-10
 61.79312    136.9 1.204e+04 4.460e-10
 61.83394    137.9 1.198e+04 4.245e-10
 61.87108    139.0 1.194e+04 4.088e-10
 61.89149    138.9 1.196e+04 4.117e-10
 61.91557    139.9 1.200e+04 4.384e-10
 61.95639    140.9 1.212e+04 5.144e-10
 61.99720    141.7 1.238e+04 6.771e-10
 62.02306    142.6 1.267e+04 9.075e-10
 62.04347    142.7 1.291e+04 1.142e-09
 62.06853    143.0 1.296e+04 1.180e-09
 62.08865    143.0 1.303e+04 1.233e-09
 62.09886    142.9 1.315e+04 1.345e-09
 62.10925    142.9 1.324e+04 1.400e-09
 62.12966    142.8 1.325e+04 1.401e-09
 62.15007    142.4 1.321e+04 1.358e-09
 62.16465    142.1 1.315e+04 1.316e-09
 62.17346    142.4 1.316e+04 1.336e-09
 62.17938    143.2 1.307e+04 1.164e-09
 62.20128    143.5 1.281e+04 1.010e-09
 62.24210    143.9 1.248e+04 7.872e-10
 62.28292    144.4 1.213e+04 5.773e-10
 62.30662    144.9 1.182e+04 4.241e-10
 62.32703    145.0 1.193e+04 4.246e-10
 62.36455    145.6 1.175e+04 3.533e-10
 62.40536    146.4 1.170e+04 3.384e-10
 62.43820    147.3 1.169e+04 3.461e-10
 62.45861    147.5 1.199e+04 4.786e-10
 62.48700    148.6 1.198e+04 5.080e-10
 62.52781    149.7 1.202e+04 5.530e-10
 62.56863    150.7 1.208e+04 6.197e-10
 62.59018    151.8 1.216e+04 7.060e-10
 62.61059    151.9 1.242e+04 8.607e-10
 62.63712    153.0 1.259e+04 9.971e-10
 62.65753    153.9 1.253e+04 9.813e-10
 62.69108    154.7 1.281e+04 1.147e-09
 62.72176    155.0 1.304e+04 1.226e-09
 62.74217    154.9 1.325e+04 1.426e-09
 62.77271    155.0 1.333e+04 1.434e-09
 62.81353    154.8 1.334e+04 1.402e-09
 62.85333    154.9 1.328e+04 1.307e-09
 62.87374    155.1 1.336e+04 1.452e-09
 62.89516    155.5 1.334e+04 1.463e-09
 62.93598    156.3 1.340e+04 1.503e-09
 62.97679    157.3 1.354e+04 1.584e-09
 63.00532    158.1 1.374e+04 1.696e-09
 63.02573    157.9 1.390e+04 2.025e-09
 63.05842    158.6 1.396e+04 2.080e-09
 63.09486    159.5 1.393e+04 2.045e-09
 63.11527    158.6 1.375e+04 1.782e-09
 63.13689    160.0 1.348e+04 1.485e-09
 63.15730    159.9 1.350e+04 1.552e-09
 63.18087    161.3 1.320e+04 1.289e-09
 63.22169    163.0 1.294e+04 1.083e-09
 63.26251    164.8 1.273e+04 9.418e-10
 63.28888    166.8 1.256e+04 8.647e-10
 63.30929    167.0 1.260e+04 9.615e-10
 63.34414    169.2 1.250e+04 9.222e-10
 63.38495    171.3 1.245e+04 9.002e-10
 63.42045    173.3 1.244e+04 8.945e-10
 63.44086    173.7 1.244e+04 9.164e-10
 63.46659    175.6 1.241e+04 9.099e-10
 63.50740    177.4 1.241e+04 9.072e-10
 63.54822    179.0 1.242e+04 9.128e-10
 63.57244    180.6 1.245e+04 9.359e-10
 63.57682    181.3 1.225e+04 8.312e-10
 63.59342    181.4 1.258e+04 1.105e-09
 63.62985    182.9 1.262e+04 1.151e-09
 63.67067    184.2 1.270e+04 1.211e-09
 63.70401    184.9 1.282e+04 1.296e-09
 63.72442    186.2 1.251e+04 1.091e-09
 63.75230    186.5 1.272e+04 1.211e-09
 63.79312    186.6 1.297e+04 1.309e-09
 63.83393    186.4 1.313e+04 1.296e-09
 63.85600    185.6 1.327e+04 1.175e-09
 63.87640    187.6 1.346e+04 1.457e-09
 63.91556    185.9 1.362e+04 1.418e-09
 63.95638    184.1 1.377e+04 1.229e-09
 63.98757    182.9 1.369e+04 9.786e-10
 64.00788    183.2 1.386e+04 1.269e-09
 64.03065    182.8 1.392e+04 1.398e-09
 64.05116    183.4 1.326e+04 8.588e-10
 64.07883    183.8 1.283e+04 6.952e-10
 64.11915    184.6 1.242e+04 5.857e-10
 64.13956    184.6 1.266e+04 7.183e-10
 64.16046    185.8 1.230e+04 5.869e-10
 64.20128    187.3 1.212e+04 5.198e-10
 64.24209    188.9 1.204e+04 4.835e-10
 64.27113    190.6 1.198e+04 4.520e-10
 64.29154    190.7 1.204e+04 4.762e-10
 64.32373    192.5 1.198e+04 4.444e-10
 64.36454    194.4 1.191e+04 4.193e-10
 64.40271    196.5 1.192e+04 4.091e-10
 64.42312    196.6 1.205e+04 4.999e-10
 64.44618    198.7 1.209e+04 5.146e-10
 64.48699    200.7 1.218e+04 5.357e-10
 64.50889    202.6 1.225e+04 5.519e-10
 64.52930    203.4 1.202e+04 4.066e-10
 64.55469    205.2 1.211e+04 4.285e-10
 64.57510    205.0 1.222e+04 5.303e-10
 64.60944    206.6 1.221e+04 5.219e-10
 64.65026    208.1 1.213e+04 4.970e-10
 64.68627    209.8 1.198e+04 4.541e-10
 64.70668    209.5 1.195e+04 4.696e-10
 64.73189    211.2 1.178e+04 4.163e-10
 64.77271    213.0 1.161e+04 3.698e-10
 64.81352    214.7 1.147e+04 3.321e-10
 64.83825    216.4 1.133e+04 3.018e-10
 64.85866    216.4 1.112e+04 2.886e-10
 64.89515    218.1 1.096e+04 2.592e-10
 64.93597    219.9 1.080e+04 2.300e-10
 64.96663    221.8 1.065e+04 2.018e-10
 64.98008    222.4 1.082e+04 2.257e-10
 64.99024    222.7 1.064e+04 1.976e-10
 65.01760    224.8 1.050e+04 1.756e-10
 65.05842    226.9 1.037e+04 1.607e-10
 65.09924    229.2 1.022e+04 1.558e-10
 65.12181    231.4 1.019e+04 1.548e-10
 65.14222    232.1 1.010e+04 1.308e-10
 65.18087    234.4 1.007e+04 1.319e-10
 65.22168    236.7 1.002e+04 1.377e-10
 65.25339    238.9 9.973e+03 1.486e-10
 65.27380    239.6 9.893e+03 1.309e-10
 65.30332    241.9 9.860e+03 1.458e-10
 65.34413    244.1 9.844e+03 1.644e-10
 65.38495    246.2 9.841e+03 1.822e-10
 65.42437    248.6 9.808e+03 1.657e-10
 65.44478    249.4 9.855e+03 1.944e-10
 65.46658    251.1 9.854e+03 1.930e-10
 65.50740    252.7 9.834e+03 1.891e-10
 65.53695    254.1 9.757e+03 1.787e-10
 65.55736    254.7 9.700e+03 1.510e-10
 65.58903    256.1 9.602e+03 1.473e-10
 65.62985    257.5 9.574e+03 1.479e-10
 65.66852    258.9 9.521e+03 1.524e-10
 65.68893    259.7 9.562e+03 1.525e-10
 65.71148    261.1 9.568e+03 1.651e-10
 65.75229    262.3 9.596e+03 1.816e-10
 65.79311    263.4 9.652e+03 2.006e-10
 65.82051    264.3 9.728e+03 2.201e-10
 65.84092    264.9 9.768e+03 2.138e-10
 65.87474    265.5 9.813e+03 2.233e-10
 65.90252    265.9 9.846e+03 2.268e-10
 65.92293    266.3 9.859e+03 2.360e-10
 65.95208    266.6 9.863e+03 2.328e-10
 65.97249    267.1 9.869e+03 2.202e-10
 65.99719    267.2 9.840e+03 2.102e-10
 66.03801    267.4 9.783e+03 1.969e-10
 66.07882    267.7 9.700e+03 1.816e-10
 66.10407    268.1 9.590e+03 1.657e-10
 66.12448    268.5 9.614e+03 1.605e-10
 66.16046    269.2 9.478e+03 1.468e-10
 66.20127    270.1 9.310e+03 1.388e-10
 66.23564    271.3 9.217e+03 1.377e-10
 66.25605    271.6 9.289e+03 1.378e-10
 66.28291    273.0 9.286e+03 1.382e-10
 66.32372    274.5 9.279e+03 1.412e-10
 66.36026    276.1 9.282e+03 1.511e-10
 66.38067    276.8 9.337e+03 1.610e-10
 66.38763    278.3 9.399e+03 1.842e-10
 66.40803    278.3 9.449e+03 1.802e-10
 66.44617    279.7 9.529e+03 2.023e-10
 66.48699    281.1 9.604e+03 2.197e-10
 66.51920    282.4 9.639e+03 2.228e-10
 66.53961    282.3 9.559e+03 1.904e-10
 66.56862    283.6 9.554e+03 1.893e-10
 66.60944    284.9 9.520e+03 1.826e-10
 66.65025    286.3 9.433e+03 1.668e-10
 66.67119    287.8 9.306e+03 1.474e-10
 66.69159    287.8 9.243e+03 1.303e-10
 66.73188    289.4 9.146e+03 1.226e-10
 66.77270    291.1 9.117e+03 1.221e-10
 66.80276    292.9 9.102e+03 1.237e-10
 66.82317    293.0 9.139e+03 1.281e-10
 66.83841    294.8 9.184e+03 1.420e-10
 66.85881    294.9 9.075e+03 1.185e-10
 66.89515    296.7 9.141e+03 1.336e-10
 66.93434    298.5 9.303e+03 1.582e-10
 66.95475    298.3 9.537e+03 1.887e-10
 66.97678    300.0 9.825e+03 2.335e-10
 67.01760    301.6 1.018e+04 2.910e-10
 67.05841    303.0 1.053e+04 3.551e-10
 67.08632    304.1 1.074e+04 4.057e-10
 67.09643    302.8 1.077e+04 4.021e-10
 67.10924    303.2 1.083e+04 4.317e-10
 67.12965    303.5 1.090e+04 4.809e-10
 67.15006    304.0 1.097e+04 5.430e-10
 67.16212    304.4 1.108e+04 6.011e-10
 67.17232    303.5 1.111e+04 5.773e-10
 67.19087    303.7 1.127e+04 6.275e-10
 67.21128    303.7 1.147e+04 6.927e-10
 67.22791    303.5 1.167e+04 7.826e-10
 67.23811    302.1 1.169e+04 7.906e-10
 67.25210    301.8 1.190e+04 9.328e-10
 67.27250    301.4 1.215e+04 1.115e-09
 67.29291    300.9 1.243e+04 1.336e-09
 67.30390    300.3 1.273e+04 1.583e-09
 67.30694    299.0 1.268e+04 1.561e-09
 67.31636    299.9 1.294e+04 1.801e-09
 67.33373    299.1 1.329e+04 2.080e-09
 67.35414    297.9 1.357e+04 2.154e-09
 67.36969    296.3 1.359e+04 2.141e-09
 67.37989    294.8 1.328e+04 1.897e-09
 67.39495    292.8 1.322e+04 1.722e-09
 67.41536    290.7 1.292e+04 1.417e-09
 67.43547    288.6 1.240e+04 1.071e-09
 67.44568    287.5 1.189e+04 8.911e-10
 67.45618    285.8 1.129e+04 6.775e-10
 67.47659    284.3 1.071e+04 5.330e-10
 67.49699    283.0 1.042e+04 4.743e-10
 67.51147    282.1 1.039e+04 4.709e-10
 67.52167    281.9 1.046e+04 4.750e-10
 67.53502    281.2 1.048e+04 4.793e-10
 67.54523    281.5 1.049e+04 5.075e-10
 67.55822    280.8 1.061e+04 5.396e-10
 67.57725    280.0 1.085e+04 6.222e-10
 67.58746    279.4 1.108e+04 6.972e-10
 67.59903    278.4 1.134e+04 8.328e-10
 67.61944    277.6 1.155e+04 9.667e-10
 67.63985    277.0 1.172e+04 1.076e-09
 67.65325    276.0 1.178e+04 1.078e-09
 67.67375    275.3 1.166e+04 9.860e-10
 67.71147    274.4 1.161e+04 9.235e-10
 67.75229    273.4 1.132e+04 7.719e-10
 67.77429    272.3 1.093e+04 6.175e-10
 67.78661    273.0 1.059e+04 4.967e-10
 67.80543    271.5 1.050e+04 5.166e-10
 67.83392    270.8 1.017e+04 4.349e-10
 67.87474    270.3 9.946e+03 3.804e-10
 67.91555    269.9 9.804e+03 3.419e-10
 67.93700    269.6 9.657e+03 3.100e-10
 67.95741    268.3 9.485e+03 2.899e-10
 67.99719    268.1 9.235e+03 2.458e-10
 68.03800    268.1 9.023e+03 2.119e-10
 68.06858    268.2 8.953e+03 1.943e-10
 68.08899    267.3 8.951e+03 1.921e-10
 68.11964    267.5 9.025e+03 1.947e-10
 68.16045    267.7 9.353e+03 2.105e-10
 68.20015    267.1 9.826e+03 2.499e-10
 68.22046    265.0 1.054e+04 3.849e-10
 68.23169    262.9 1.121e+04 5.970e-10
 68.24204    260.8 1.182e+04 9.334e-10
 68.25224    261.4 1.171e+04 9.144e-10
 68.27250    259.7 1.221e+04 1.330e-09
 68.28615    258.2 1.259e+04 1.731e-09
 68.29636    256.9 1.275e+04 1.852e-09
 68.31332    255.4 1.299e+04 1.935e-09
 68.33373    253.5 1.302e+04 1.890e-09
 68.35194    251.3 1.301e+04 1.757e-09
 68.36215    249.5 1.276e+04 1.519e-09
 68.37454    246.8 1.263e+04 1.418e-09
 68.39495    243.6 1.268e+04 1.403e-09
 68.41536    239.8 1.273e+04 1.386e-09
 68.44607    236.5 1.251e+04 1.181e-09
 68.48371    233.2 1.230e+04 9.397e-10
 68.50412    232.2 1.202e+04 8.817e-10
 68.52780    229.3 1.148e+04 6.192e-10
 68.55831    227.7 1.121e+04 5.375e-10
 68.56971    225.9 1.108e+04 5.037e-10
 68.57992    224.8 1.101e+04 5.009e-10
 68.59903    222.1 1.100e+04 5.143e-10
 68.61944    219.2 1.134e+04 6.056e-10
 68.63550    216.6 1.188e+04 7.822e-10
 68.64571    216.1 1.206e+04 8.512e-10
 68.66026    213.6 1.236e+04 9.546e-10
 68.68967    209.2 1.244e+04 8.458e-10
 68.71008    210.2 1.231e+04 8.003e-10
 68.73178    209.1 1.198e+04 6.315e-10
 68.76727    206.8 1.148e+04 4.400e-10
 68.78768    206.2 1.104e+04 3.660e-10
 68.81351    204.2 1.048e+04 2.765e-10
 68.85433    202.8 1.049e+04 2.762e-10
 68.89514    201.4 1.072e+04 2.979e-10
 68.91926    199.9 1.100e+04 3.357e-10
 68.93966    199.7 1.102e+04 3.406e-10
 68.97678    198.3 1.119e+04 3.795e-10
 69.00729    197.7 1.120e+04 4.014e-10
 69.02760    197.4 1.124e+04 4.157e-10
 69.04801    196.8 1.128e+04 4.148e-10
 69.06084    196.2 1.128e+04 4.089e-10
 69.07114    195.5 1.126e+04 3.630e-10
 69.09923    194.5 1.116e+04 3.492e-10
 69.14004    193.8 1.112e+04 3.458e-10
 69.16792    193.6 1.111e+04 3.501e-10
 69.17802    194.2 1.108e+04 3.578e-10
 69.19087    194.1 1.107e+04 3.594e-10
 69.20272    194.4 1.112e+04 3.670e-10
 69.22322    195.1 1.104e+04 3.447e-10
 69.26249    195.3 1.096e+04 3.310e-10
 69.30331    195.6 1.087e+04 3.139e-10
 69.33439    195.9 1.079e+04 3.020e-10
 69.35480    197.3 1.054e+04 2.759e-10
 69.38494    197.6 1.054e+04 2.781e-10
 69.42576    197.7 1.059e+04 2.897e-10
 69.46597    197.6 1.065e+04 3.057e-10
 69.48638    199.1 1.060e+04 3.053e-10
 69.49709    198.7 1.060e+04 3.214e-10
 69.51740    198.7 1.062e+04 3.548e-10
 69.53780    198.7 1.074e+04 4.211e-10
 69.55197    198.7 1.096e+04 5.195e-10
 69.56217    199.3 1.089e+04 5.140e-10
 69.57862    199.3 1.117e+04 6.437e-10
 69.59903    199.3 1.150e+04 8.069e-10
 69.61776    199.3 1.187e+04 9.978e-10
 69.62796    199.8 1.184e+04 1.028e-09
 69.63566    199.8 1.224e+04 1.274e-09
 69.64587    199.8 1.256e+04 1.550e-09
 69.66025    199.7 1.306e+04 1.930e-09
 69.68066    199.2 1.366e+04 2.414e-09
 69.69375    198.2 1.445e+04 3.120e-09
 69.70395    198.9 1.444e+04 3.286e-09
 69.72148    197.7 1.544e+04 4.499e-09
 69.74189    196.5 1.672e+04 6.539e-09
 69.75954    195.2 1.811e+04 9.705e-09
 69.76974    195.7 1.799e+04 9.709e-09
 69.78270    194.1 1.924e+04 1.363e-08
 69.80311    191.8 2.018e+04 1.615e-08
 69.82352    189.1 2.028e+04 1.618e-08
 69.83553    186.7 2.014e+04 1.515e-08
 69.84573    187.2 2.007e+04 1.537e-08
 69.86433    185.0 1.978e+04 1.297e-08
 69.87474    182.9 1.901e+04 9.730e-09
 69.88494    182.2 1.894e+04 9.340e-09
 69.90132    180.2 1.778e+04 6.616e-09
 69.91152    180.9 1.770e+04 6.727e-09
 69.92556    179.6 1.651e+04 4.714e-09
 69.94597    179.2 1.523e+04 3.338e-09
 69.96637    179.3 1.420e+04 2.463e-09
 69.97731    179.6 1.345e+04 1.906e-09
 69.98751    180.1 1.363e+04 2.007e-09
 70.00719    180.4 1.316e+04 1.651e-09
 70.02760    180.7 1.284e+04 1.409e-09
 70.04310    181.0 1.260e+04 1.244e-09
 70.05330    181.5 1.282e+04 1.316e-09
 70.06842    181.8 1.258e+04 1.176e-09
 70.08882    182.2 1.234e+04 1.065e-09
 70.10361    182.6 1.212e+04 9.739e-10
 70.11346    182.4 1.213e+04 8.765e-10
 70.11909    182.8 1.209e+04 8.011e-10
 70.12964    183.3 1.188e+04 7.115e-10
 70.15005    184.0 1.157e+04 5.909e-10
 70.17046    184.6 1.139e+04 5.340e-10
 70.18488    185.5 1.116e+04 4.717e-10
 70.20538    186.3 1.088e+04 3.797e-10
 70.24208    188.1 1.077e+04 3.563e-10
 70.28290    189.3 1.077e+04 3.583e-10
 70.31341    190.2 1.072e+04 3.671e-10
 70.32666    190.9 1.075e+04 3.964e-10
 70.33696    190.8 1.074e+04 3.562e-10
 70.35423    191.6 1.078e+04 4.217e-10
 70.37454    192.8 1.093e+04 5.124e-10
 70.39244    193.9 1.114e+04 6.003e-10
 70.40265    194.2 1.115e+04 5.999e-10
 70.41535    195.2 1.136e+04 6.450e-10
 70.43576    195.9 1.139e+04 6.440e-10
 70.45617    196.5 1.140e+04 6.310e-10
 70.46844    196.9 1.137e+04 5.842e-10
 70.47864    197.3 1.142e+04 6.053e-10
 70.49699    197.7 1.131e+04 5.331e-10
 70.51739    197.8 1.117e+04 4.658e-10
 70.53422    197.8 1.109e+04 4.388e-10
 70.54443    198.3 1.112e+04 4.411e-10
 70.55821    198.3 1.111e+04 4.415e-10
 70.57155    198.2 1.114e+04 4.556e-10
 70.58175    197.2 1.123e+04 4.864e-10
 70.59903    196.4 1.145e+04 5.804e-10
 70.61022    194.9 1.232e+04 8.434e-10
 70.62042    194.8 1.263e+04 9.175e-10
 70.63984    192.2 1.413e+04 1.663e-09
 70.66025    189.3 1.559e+04 3.104e-09
 70.67600    186.5 1.679e+04 5.199e-09
 70.68621    186.9 1.678e+04 5.538e-09
 70.70107    184.2 1.773e+04 6.760e-09
 70.72147    180.5 1.805e+04 6.688e-09
 70.74179    175.8 1.829e+04 5.945e-09
 70.76220    170.9 1.786e+04 4.016e-09
 70.78270    164.5 1.680e+04 2.793e-09
 70.80042    158.4 1.518e+04 2.067e-09
 70.81062    157.1 1.470e+04 1.707e-09
 70.81778    153.3 1.370e+04 1.435e-09
 70.82799    155.2 1.403e+04 1.656e-09
 70.84392    152.7 1.369e+04 1.449e-09
 70.86433    150.8 1.329e+04 1.238e-09
 70.88357    149.4 1.281e+04 1.031e-09
 70.89378    150.9 1.315e+04 1.102e-09
 70.90515    149.7 1.258e+04 8.336e-10
 70.92556    148.6 1.218e+04 6.851e-10
 70.94596    146.2 1.394e+04 6.530e-10
 70.95956    142.5 1.936e+04 7.432e-10
 70.96977    143.3 2.050e+04 6.046e-10
 70.98678    139.3 2.607e+04 9.476e-10
 71.00719    136.3 2.509e+04 3.250e-09
 71.02245    135.8 2.423e+04 5.221e-09
 71.03036    135.1 2.372e+04 7.978e-09
 71.03551    135.4 2.400e+04 7.968e-09
 71.03944    135.4 2.360e+04 9.153e-09
 71.04965    138.1 2.343e+04 4.903e-09
 71.06326    136.0 2.291e+04 1.185e-08
 71.07342    135.9 2.248e+04 1.972e-08
 71.08362    135.6 2.228e+04 3.282e-08
 71.09383    135.5 2.227e+04 5.206e-08
 71.10125    135.7 2.241e+04 7.596e-08
 71.10635    136.4 2.224e+04 7.350e-08
 71.11423    136.8 2.252e+04 1.002e-07
 71.12444    137.1 2.286e+04 1.153e-07
 71.13414    137.3 2.293e+04 1.139e-07
 71.13924    138.2 2.279e+04 1.401e-07
 71.14485    138.3 2.324e+04 1.335e-07
 71.15383    138.0 2.375e+04 1.067e-07
 71.15893    139.5 2.257e+04 1.366e-07
 71.16525    139.3 2.282e+04 1.086e-07
 71.17214    138.5 2.356e+04 6.744e-08
 71.17724    139.8 2.331e+04 1.202e-07
 71.18566    138.3 2.392e+04 6.438e-08
 71.19587    136.4 2.424e+04 3.031e-08
 71.20503    136.1 2.430e+04 1.787e-08
 71.21013    136.4 2.442e+04 2.240e-08
 71.21627    135.4 2.419e+04 1.156e-08
 71.23163    131.7 2.092e+04 4.405e-09
 71.24312    128.2 1.473e+04 2.360e-09
 71.25333    128.7 1.479e+04 2.142e-09
 71.26836    127.4 1.251e+04 1.652e-09
 71.27857    128.8 1.325e+04 1.770e-09
 71.29290    128.9 1.242e+04 1.547e-09
 71.30891    129.4 1.219e+04 1.427e-09
 71.31912    129.5 1.193e+04 1.252e-09
 71.33372    130.6 1.183e+04 1.173e-09
 71.35413    131.9 1.175e+04 1.080e-09
 71.37453    133.2 1.164e+04 9.697e-10
 71.38490    134.2 1.152e+04 8.568e-10
 71.39511    134.4 1.146e+04 8.704e-10
 71.41535    135.4 1.135e+04 7.912e-10
 71.43576    136.2 1.124e+04 7.783e-10
 71.45069    137.1 1.127e+04 7.898e-10
 71.46090    137.3 1.125e+04 8.000e-10
 71.47658    138.2 1.128e+04 8.236e-10
 71.49698    139.0 1.140e+04 8.717e-10
 71.50744    139.8 1.158e+04 9.471e-10
 71.51673    140.7 1.136e+04 8.410e-10
 71.52668    140.8 1.132e+04 8.347e-10
 71.53780    141.6 1.143e+04 9.035e-10
 71.55821    142.3 1.163e+04 9.972e-10
 71.57862    143.0 1.186e+04 1.116e-09
 71.59247    143.7 1.211e+04 1.259e-09
 71.60268    143.8 1.181e+04 1.124e-09
 71.61943    144.4 1.203e+04 1.254e-09
 71.63984    145.0 1.227e+04 1.397e-09
 71.65826    145.6 1.254e+04 1.555e-09
 71.66846    145.6 1.213e+04 1.339e-09
 71.68066    146.1 1.240e+04 1.490e-09
 71.70106    146.4 1.270e+04 1.661e-09
 71.72147    146.6 1.300e+04 1.836e-09
 71.73425    146.7 1.323e+04 1.963e-09
 71.73888    146.7 1.283e+04 1.701e-09
 71.74651    147.2 1.290e+04 1.730e-09
 71.76229    147.0 1.292e+04 1.724e-09
 71.78270    146.8 1.285e+04 1.672e-09
 71.80004    146.8 1.261e+04 1.510e-09
 71.81024    146.8 1.234e+04 1.361e-09
 71.82351    146.9 1.197e+04 1.155e-09
 71.84392    147.0 1.151e+04 9.336e-10
 71.86433    147.0 1.104e+04 7.390e-10
 71.87603    147.0 1.062e+04 5.884e-10
 71.88624    146.9 1.059e+04 5.719e-10
 71.90515    146.7 1.032e+04 4.724e-10
 71.92555    146.4 1.015e+04 4.120e-10
 71.94182    146.1 1.017e+04 4.100e-10
 71.95202    145.7 1.035e+04 4.502e-10
 71.96518    145.5 1.040e+04 4.639e-10
 71.97538    146.0 1.037e+04 4.620e-10
 71.98678    145.8 1.052e+04 4.943e-10
 72.00719    145.8 1.056e+04 5.106e-10
 72.01791    146.7 1.074e+04 5.680e-10
 72.03841    145.9 1.125e+04 7.870e-10
 72.07881    146.6 1.146e+04 8.865e-10
 72.10932    146.2 1.141e+04 8.816e-10
 72.12963    146.0 1.137e+04 8.695e-10
 72.14939    146.0 1.129e+04 8.337e-10
 72.15959    145.4 1.131e+04 8.474e-10
 72.17045    145.4 1.117e+04 7.722e-10
 72.19086    145.4 1.103e+04 7.072e-10
 72.20425    145.3 1.092e+04 6.566e-10
 72.21445    145.5 1.096e+04 6.645e-10
 72.22538    145.3 1.081e+04 6.131e-10
 72.23558    144.9 1.065e+04 5.756e-10
 72.25208    144.8 1.053e+04 5.416e-10
 72.27249    144.6 1.044e+04 5.087e-10
 72.29117    144.4 1.036e+04 4.727e-10
 72.30137    143.8 1.027e+04 4.355e-10
 72.32361    143.4 1.018e+04 3.898e-10
 72.36452    143.3 9.966e+03 3.306e-10
 72.40534    142.9 9.722e+03 2.819e-10
 72.43314    142.3 9.585e+03 2.635e-10
 72.45355    143.6 9.429e+03 2.403e-10
 72.48697    143.3 9.435e+03 2.398e-10
 72.52779    143.0 9.439e+03 2.393e-10
 72.56472    142.6 9.423e+03 2.362e-10
 72.58513    143.6 9.307e+03 2.172e-10
 72.60942    143.4 9.250e+03 2.109e-10
 72.65024    143.3 9.150e+03 2.007e-10
 72.69105    143.3 9.110e+03 1.971e-10
 72.71670    143.3 9.132e+03 1.995e-10
 72.73711    144.5 8.981e+03 1.777e-10
 72.77269    144.6 9.043e+03 1.849e-10
 72.81350    144.7 9.257e+03 2.126e-10
 72.84828    144.7 9.556e+03 2.580e-10
 72.86869    145.8 9.344e+03 2.238e-10
 72.89105    145.8 9.606e+03 2.680e-10
 72.91146    146.7 9.893e+03 3.192e-10
 72.93595    146.7 1.006e+04 3.454e-10
 72.97677    146.6 1.007e+04 3.435e-10
 73.00026    146.5 1.009e+04 3.331e-10
 73.02067    147.6 9.943e+03 3.105e-10
 73.05840    147.2 1.001e+04 3.074e-10
 73.09922    146.4 1.013e+04 3.151e-10
 73.13184    145.0 1.032e+04 3.378e-10
 73.15225    146.3 1.022e+04 3.294e-10
 73.17055    145.5 1.035e+04 3.627e-10
 73.19086    145.2 1.057e+04 4.365e-10
 73.20763    145.0 1.098e+04 5.785e-10
 73.21784    145.6 1.105e+04 6.176e-10
 73.23167    145.3 1.159e+04 8.451e-10
 73.25208    144.9 1.209e+04 1.090e-09
 73.27249    144.4 1.250e+04 1.297e-09
 73.28363    143.6 1.278e+04 1.391e-09
 73.29383    144.3 1.316e+04 1.617e-09
 73.31331    143.2 1.319e+04 1.610e-09
 73.33371    141.8 1.318e+04 1.557e-09
 73.34941    140.4 1.304e+04 1.433e-09
 73.35962    141.0 1.321e+04 1.556e-09
 73.36901    139.4 1.293e+04 1.357e-09
 73.37921    139.2 1.319e+04 1.497e-09
 73.39494    137.2 1.298e+04 1.331e-09
 73.41520    135.2 1.299e+04 1.329e-09
 73.42541    136.0 1.283e+04 1.262e-09
 73.43575    133.9 1.296e+04 1.316e-09
 73.45616    131.8 1.341e+04 1.528e-09
 73.47657    129.8 1.395e+04 1.841e-09
 73.49119    127.8 1.423e+04 1.980e-09
 73.50140    128.4 1.436e+04 2.145e-09
 73.51739    126.4 1.441e+04 2.156e-09
 73.53779    124.8 1.429e+04 1.980e-09
 73.55698    123.5 1.391e+04 1.517e-09
 73.56719    124.1 1.425e+04 1.900e-09
 73.57861    123.0 1.382e+04 1.313e-09
 73.59787    121.2 1.332e+04 9.314e-10
 73.60808    120.5 1.305e+04 8.357e-10
 73.62973    117.1 1.222e+04 5.230e-10
 73.67064    112.2 1.065e+04 3.420e-10
 73.69896    108.3 1.048e+04 3.399e-10
 73.71937    110.2 1.050e+04 3.519e-10
 73.75227    106.7 1.048e+04 3.594e-10
 73.79309    103.0 1.067e+04 3.873e-10
 73.82694     99.4 1.090e+04 4.071e-10
 73.84397     99.2 1.051e+04 3.321e-10
 73.85094    100.7 1.049e+04 3.291e-10
 73.87472     96.8 1.061e+04 3.319e-10
 73.90524     93.6 1.082e+04 3.655e-10
 73.91653     90.6 1.105e+04 4.345e-10
 73.92674     91.5 1.101e+04 4.156e-10
 73.94596     88.3 1.126e+04 5.329e-10
 73.96636     85.6 1.160e+04 7.277e-10
 73.98232     83.7 1.200e+04 9.904e-10
 73.99253     84.4 1.197e+04 9.537e-10
 74.00718     83.0 1.233e+04 1.209e-09
 74.02759     81.7 1.265e+04 1.253e-09
 74.04800     80.2 1.267e+04 1.229e-09
 74.05831     78.3 1.269e+04 1.109e-09
 74.06593     79.1 1.274e+04 1.172e-09
 74.07602     79.4 1.301e+04 1.359e-09
 74.08881     77.1 1.309e+04 1.241e-09
 74.10922     74.3 1.316e+04 1.230e-09
 74.12410     70.9 1.337e+04 1.285e-09
 74.13431     72.2 1.345e+04 1.351e-09
 74.15004     69.0 1.380e+04 1.572e-09
 74.17045     65.9 1.443e+04 2.119e-09
 74.18989     61.3 1.640e+04 3.473e-09
 74.20009     63.8 1.581e+04 3.155e-09
 74.20611     60.3 1.714e+04 4.292e-09
 74.21627     58.4 1.770e+04 4.984e-09
 74.22647     55.7 1.848e+04 6.347e-09
 74.23289     53.3 1.894e+04 7.943e-09
 74.23799     54.4 1.892e+04 7.462e-09
 74.24688     52.3 1.868e+04 8.677e-09
 74.25708     50.0 2.054e+04 8.444e-09
 74.26578     23.3 6.166e+04 7.669e-09
 74.27089     34.4 4.859e+04 7.280e-09
 74.27749     -2.7 5.534e+04 3.965e-08
 74.28476    -17.8 2.645e+04 7.227e-07
 74.28728    -15.8 2.855e+04 5.361e-07
 74.29020    -21.6 2.382e+04 8.324e-07
 74.29787    -25.4 2.079e+04 8.635e-07
 74.30378    -26.9 2.286e+04 5.872e-07
 74.30557    -25.6 2.169e+04 6.925e-07
 74.30990    -26.8 2.236e+04 6.232e-07
 74.31831    -36.5 3.355e+04 8.003e-08
 74.32851    -55.6 3.424e+04 5.769e-09
 74.33667    -71.8 2.130e+04 2.857e-09
 74.34178    -69.1 2.478e+04 3.121e-09
 74.35407    -73.2 2.130e+04 2.298e-09
 74.37453    -81.4 1.439e+04 1.898e-09
 74.39494    -82.6 1.420e+04 1.867e-09
 74.40766    -85.2 1.437e+04 1.904e-09
 74.41787    -84.1 1.400e+04 1.741e-09
 74.43575    -86.9 1.446e+04 1.780e-09
 74.45616    -92.0 1.722e+04 2.421e-09
 74.47345    -97.7 1.966e+04 4.564e-09
 74.48365    -93.3 1.633e+04 2.088e-09
 74.49698    -98.3 1.843e+04 3.759e-09
 74.51738   -101.8 1.926e+04 6.765e-09
 74.53376   -103.9 1.986e+04 9.957e-09
 74.54392   -104.1 1.991e+04 1.032e-08
 74.54934   -105.3 2.031e+04 1.192e-08
 74.55445   -104.2 1.957e+04 9.450e-09
 74.56320   -105.6 2.044e+04 1.178e-08
 74.57341   -107.8 2.150e+04 1.596e-08
 74.58224   -110.5 2.264e+04 1.928e-08
 74.58734   -109.6 2.250e+04 1.791e-08
 74.59382   -113.2 2.362e+04 2.372e-08
 74.60402   -116.8 2.474e+04 2.757e-08
 74.61422   -120.5 2.593e+04 2.881e-08
 74.62023   -123.9 2.647e+04 2.912e-08
 74.62534   -121.6 2.503e+04 4.986e-08
 74.63463   -124.1 2.548e+04 5.160e-08
 74.64484   -126.8 2.649e+04 4.640e-08
 74.65313   -129.6 2.724e+04 3.175e-08
 74.65639   -127.0 2.589e+04 6.352e-08
 74.65830   -127.9 2.664e+04 4.970e-08
 74.66524   -131.5 2.642e+04 2.415e-08
 74.67545   -136.3 2.345e+04 1.178e-08
 74.68565   -140.1 2.032e+04 8.023e-09
 74.69117   -142.9 1.883e+04 6.406e-09
 74.69627   -142.5 1.910e+04 8.130e-09
 74.70606   -143.9 1.844e+04 7.182e-09
 74.72142   -145.6 1.790e+04 6.082e-09
 74.74187   -149.1 1.536e+04 3.628e-09
 74.75701   -151.6 1.314e+04 2.372e-09
 74.76721   -149.4 1.553e+04 3.358e-09
 74.77283   -151.7 1.331e+04 2.245e-09
 74.78304   -151.8 1.325e+04 2.372e-09
 74.80310   -152.5 1.278e+04 2.047e-09
 74.82280   -152.8 1.247e+04 1.855e-09
 74.83300   -152.0 1.290e+04 1.966e-09
 74.84391   -152.2 1.257e+04 1.805e-09
 74.86432   -152.2 1.247e+04 1.747e-09
 74.88473   -152.3 1.249e+04 1.745e-09
 74.89879   -153.4 1.337e+04 1.834e-09
 74.90899   -151.8 1.271e+04 1.736e-09
 74.92555   -153.2 1.393e+04 1.896e-09
 74.94595   -155.7 1.602e+04 2.854e-09
 74.96458   -158.0 1.750e+04 5.080e-09
 74.97478   -155.4 1.684e+04 3.357e-09
 74.98677   -157.5 1.845e+04 5.914e-09
 75.00170   -159.1 1.919e+04 9.970e-09
 75.01191   -160.8 1.979e+04 1.332e-08
 75.02759   -162.4 2.000e+04 1.784e-08
 75.04057   -163.7 2.004e+04 1.919e-08
 75.05077   -162.4 2.059e+04 1.624e-08
 75.06840   -164.5 2.086e+04 1.798e-08
 75.08881   -166.5 2.095e+04 1.816e-08
 75.10636   -168.6 2.118e+04 1.602e-08
 75.11656   -166.9 2.099e+04 1.667e-08
 75.12963   -169.9 2.066e+04 1.452e-08
 75.15004   -173.0 1.991e+04 1.079e-08
 75.17044   -175.7 1.854e+04 7.686e-09
 75.18235   -177.3 1.727e+04 5.943e-09
 75.19255   -176.1 1.760e+04 6.751e-09
 75.21126   -177.8 1.623e+04 4.829e-09
 75.23057   -179.0 1.522e+04 3.518e-09
 75.24078   -180.9 1.406e+04 2.262e-09
 75.24814   -182.0 1.317e+04 1.595e-09
 75.25834   -181.1 1.296e+04 1.623e-09
 75.27248   -182.0 1.221e+04 1.192e-09
 75.29289   -182.8 1.166e+04 9.640e-10
 75.31330   -183.2 1.150e+04 8.948e-10
 75.32413   -183.3 1.151e+04 8.651e-10
 75.33433   -183.1 1.164e+04 9.170e-10
 75.35412   -183.8 1.193e+04 9.745e-10
 75.37452   -184.6 1.258e+04 1.152e-09
 75.38992   -185.5 1.334e+04 1.554e-09
 75.40012   -185.4 1.374e+04 1.998e-09
 75.41534   -185.6 1.435e+04 2.806e-09
 75.43575   -185.5 1.486e+04 3.796e-09
 75.45570   -185.1 1.520e+04 4.672e-09
 75.46591   -184.4 1.482e+04 4.100e-09
 75.46965   -184.1 1.488e+04 4.299e-09
 75.47985   -184.9 1.464e+04 4.024e-09
 75.49697   -184.2 1.442e+04 3.694e-09
 75.51738   -183.6 1.412e+04 3.173e-09
 75.53170   -182.9 1.374e+04 2.562e-09
 75.54190   -182.4 1.284e+04 1.578e-09
 75.55820   -182.0 1.241e+04 1.231e-09
 75.57861   -181.6 1.192e+04 9.360e-10
 75.59748   -181.2 1.144e+04 7.093e-10
 75.60769   -181.1 1.076e+04 4.667e-10
 75.61942   -180.8 1.048e+04 3.951e-10
 75.63983   -180.3 1.032e+04 3.525e-10
 75.66024   -179.6 1.029e+04 3.396e-10
 75.67348   -178.5 1.033e+04 3.495e-10
 75.68378   -177.9 1.032e+04 3.050e-10
 75.69871   -175.1 9.955e+03 2.788e-10
 75.71912   -176.5 9.538e+03 2.308e-10
 75.75227   -173.6 9.423e+03 2.216e-10
 75.79309   -170.7 9.400e+03 2.197e-10
 75.81545   -168.1 9.397e+03 2.204e-10
 75.83586   -167.6 9.518e+03 2.475e-10
 75.87472   -165.8 9.886e+03 3.331e-10
 75.91553   -164.3 1.082e+04 5.464e-10
 75.94703   -163.4 1.192e+04 9.438e-10
 75.96734   -162.9 1.238e+04 1.253e-09
 75.98677   -162.6 1.304e+04 1.716e-09
 76.00718   -162.4 1.368e+04 2.325e-09
 76.02282   -162.1 1.425e+04 3.050e-09
 76.03303   -161.4 1.426e+04 3.300e-09
 76.04799   -161.4 1.450e+04 3.681e-09
 76.06840   -161.5 1.455e+04 3.775e-09
 76.08861   -161.4 1.450e+04 3.778e-09
 76.09882   -160.6 1.409e+04 3.422e-09
 76.10922   -160.0 1.374e+04 3.103e-09
 76.12962   -159.3 1.336e+04 2.687e-09
 76.15003   -158.7 1.296e+04 2.295e-09
 76.16460   -158.2 1.257e+04 1.957e-09
 76.17083   -157.6 1.225e+04 1.700e-09
 76.17666   -158.5 1.225e+04 1.763e-09
 76.19085   -157.9 1.189e+04 1.545e-09
 76.21126   -157.2 1.159e+04 1.373e-09
 76.23039   -156.4 1.140e+04 1.246e-09
 76.24060   -155.8 1.125e+04 1.176e-09
 76.25207   -155.1 1.111e+04 1.073e-09
 76.27248   -154.4 1.097e+04 9.886e-10
 76.29289   -153.9 1.088e+04 9.145e-10
 76.32360   -153.4 1.078e+04 8.545e-10
 76.36216   -151.7 1.075e+04 8.428e-10
 76.38257   -150.8 1.018e+04 6.268e-10
 76.40533   -149.3 1.013e+04 6.081e-10
 76.44615   -148.6 1.050e+04 6.923e-10
 76.48696   -148.1 1.111e+04 9.240e-10
 76.51415   -147.5 1.168e+04 1.229e-09
 76.53456   -145.8 1.061e+04 7.021e-10
 76.56859   -145.9 1.128e+04 1.025e-09
 76.59004   -147.1 1.190e+04 1.449e-09
 76.60015   -147.0 1.165e+04 1.262e-09
 76.61942   -147.6 1.228e+04 1.609e-09
 76.63440   -148.2 1.287e+04 2.075e-09
 76.64461   -149.1 1.285e+04 2.046e-09
 76.65573   -150.2 1.418e+04 3.033e-09
 76.66594   -149.9 1.385e+04 2.722e-09
 76.68064   -151.0 1.518e+04 4.136e-09
 76.70105   -152.5 1.624e+04 5.858e-09
 76.72146   -154.6 1.673e+04 7.001e-09
 76.74187   -156.4 1.647e+04 6.448e-09
 76.76228   -158.5 1.616e+04 6.177e-09
 76.78268   -160.2 1.520e+04 4.495e-09
 76.79751   -161.7 1.394e+04 2.734e-09
 76.80772   -160.9 1.370e+04 2.541e-09
 76.82350   -162.8 1.247e+04 1.498e-09
 76.84391   -164.9 1.139e+04 9.232e-10
 76.86327   -166.8 1.064e+04 6.416e-10
 76.87348   -166.6 1.042e+04 5.994e-10
 76.88472   -167.9 1.011e+04 5.059e-10
 76.90513   -168.6 9.982e+03 4.629e-10
 76.92554   -169.1 9.905e+03 4.423e-10
 76.93929   -169.4 9.850e+03 4.333e-10
 76.94950   -168.9 9.910e+03 4.587e-10
 76.96636   -169.2 9.906e+03 4.584e-10
 76.98677   -169.4 9.908e+03 4.642e-10
 77.00508   -169.6 9.956e+03 4.882e-10
 77.01528   -169.2 1.004e+04 5.287e-10
 77.02758   -169.4 1.008e+04 5.572e-10
 77.04799   -169.5 1.011e+04 5.829e-10
 77.06840   -169.6 1.014e+04 5.992e-10
 77.08107   -169.6 1.014e+04 6.071e-10
 77.09128   -168.9 9.924e+03 5.477e-10
 77.10235   -168.9 9.811e+03 5.097e-10
 77.11255   -169.4 9.665e+03 4.556e-10
 77.13992   -169.8 9.524e+03 3.991e-10
 77.18084   -169.8 9.460e+03 3.623e-10
 77.21284   -170.0 9.475e+03 3.561e-10
 77.23325   -169.3 8.930e+03 2.378e-10
 77.26247   -170.0 9.047e+03 2.445e-10
 77.30329   -171.0 9.522e+03 3.217e-10
 77.34410   -171.6 9.990e+03 4.520e-10
 77.36483   -171.8 1.030e+04 5.695e-10
 77.38523   -171.3 9.439e+03 3.518e-10
 77.42573   -171.3 9.561e+03 3.796e-10
 77.46655   -171.3 9.575e+03 3.823e-10
 77.49640   -170.7 9.466e+03 3.464e-10
 77.51681   -169.9 8.783e+03 2.301e-10
 77.54818   -169.0 8.614e+03 1.947e-10
 77.57048   -168.1 8.494e+03 1.677e-10
 77.59089   -169.2 8.301e+03 1.366e-10
 77.62798   -168.3 8.298e+03 1.294e-10
 77.64839   -167.3 8.140e+03 1.188e-10
 77.67063   -166.2 8.140e+03 1.141e-10
 77.71145   -165.1 8.163e+03 1.140e-10
 77.75226   -163.9 8.331e+03 1.254e-10
 77.77996   -162.6 8.505e+03 1.486e-10
 77.80037   -161.4 8.273e+03 1.217e-10
 77.83390   -159.9 8.391e+03 1.356e-10
 77.87471   -158.3 8.448e+03 1.474e-10
 77.91154   -156.4 8.451e+03 1.515e-10
 77.93195   -155.3 8.349e+03 1.340e-10
 77.95635   -153.2 8.350e+03 1.343e-10
 77.99716   -151.1 8.328e+03 1.319e-10
 78.02822   -148.8 8.305e+03 1.288e-10
 78.04863   -149.1 8.034e+03 8.782e-11
 78.06352   -146.9 8.041e+03 8.535e-11
 78.08393   -145.8 8.020e+03 8.265e-11
 78.11961   -143.7 8.035e+03 8.267e-11
 78.16043   -141.8 8.114e+03 8.388e-11
 78.19510   -140.3 8.411e+03 1.036e-10
 78.21551   -139.3 8.398e+03 1.009e-10
 78.24206   -138.0 8.874e+03 1.665e-10
 78.28288   -136.6 9.343e+03 2.737e-10
 78.32369   -135.3 9.675e+03 3.879e-10
 78.34708   -134.3 9.859e+03 4.520e-10
 78.36749   -133.6 1.019e+04 5.309e-10
 78.40532   -132.9 1.024e+04 5.594e-10
 78.44614   -132.2 1.019e+04 5.478e-10
 78.47866   -131.2 9.973e+03 4.680e-10
 78.49807   -130.8 1.022e+04 5.311e-10
 78.50637   -131.6 1.003e+04 4.608e-10
 78.52777   -131.3 9.947e+03 4.152e-10
 78.56859   -131.2 9.942e+03 4.019e-10
 78.60941   -131.9 1.002e+04 4.038e-10
 78.63064   -134.1 1.115e+04 5.860e-10
 78.65105   -134.6 1.185e+04 8.476e-10
 78.68074   -135.7 1.249e+04 1.163e-09
 78.69623   -136.9 1.305e+04 1.575e-09
 78.70644   -137.3 1.341e+04 1.995e-09
 78.72145   -138.9 1.389e+04 2.706e-09
 78.73504   -140.8 1.419e+04 2.988e-09
 78.74525   -141.6 1.423e+04 3.043e-09
 78.76202   -144.8 1.435e+04 3.018e-09
 78.77223   -147.0 1.523e+04 3.342e-09
 78.78268   -152.8 1.564e+04 3.190e-09
 78.80309   -159.1 1.562e+04 2.922e-09
 78.82350   -164.1 1.462e+04 2.742e-09
 78.83801   -167.3 1.366e+04 2.416e-09
 78.84822   -169.4 1.340e+04 2.405e-09
 78.86431   -170.8 1.268e+04 1.752e-09
 78.88472   -172.3 1.206e+04 1.176e-09
 78.90380   -174.2 1.146e+04 7.563e-10
 78.91401   -176.4 1.108e+04 5.431e-10
 78.92554   -178.4 1.047e+04 3.730e-10
 78.94594   -179.6 1.006e+04 3.045e-10
 78.96401   -180.3 9.841e+03 2.783e-10
 78.98452   -181.2 9.763e+03 2.644e-10
 79.01757   -181.8 9.680e+03 2.543e-10
 79.04578   -182.8 9.673e+03 2.530e-10
 79.06619   -183.5 9.728e+03 2.629e-10
 79.09920   -184.6 9.992e+03 3.110e-10
 79.14002   -185.9 1.070e+04 4.905e-10
 79.17735   -187.1 1.128e+04 7.428e-10
 79.19776   -187.4 1.179e+04 1.005e-09
 79.22165   -188.7 1.196e+04 1.139e-09
 79.26246   -189.9 1.193e+04 1.135e-09
 79.30328   -190.7 1.153e+04 9.193e-10
 79.32924   -191.6 1.102e+04 6.677e-10
 79.33935   -191.7 1.122e+04 7.355e-10
 79.35411   -192.0 1.108e+04 6.643e-10
 79.37451   -192.3 1.097e+04 6.070e-10
 79.39492   -192.5 1.091e+04 5.699e-10
 79.41533   -192.7 1.107e+04 6.582e-10
 79.43186   -192.6 1.106e+04 6.534e-10
 79.44206   -192.9 1.101e+04 6.097e-10
 79.45615   -192.9 1.103e+04 6.104e-10
 79.47092   -192.8 1.107e+04 6.142e-10
 79.48113   -192.5 1.120e+04 7.232e-10
 79.49696   -192.6 1.131e+04 7.375e-10
 79.51737   -193.9 1.211e+04 8.536e-10
 79.53671   -195.6 1.355e+04 1.394e-09
 79.54691   -194.5 1.297e+04 1.171e-09
 79.55819   -196.0 1.443e+04 2.037e-09
 79.57860   -197.4 1.566e+04 3.544e-09
 79.59900   -198.8 1.652e+04 5.485e-09
 79.61270   -200.4 1.693e+04 7.090e-09
 79.62291   -199.5 1.661e+04 5.672e-09
 79.63982   -201.0 1.690e+04 7.025e-09
 79.66023   -202.3 1.692e+04 7.403e-09
 79.67093   -203.5 1.678e+04 7.356e-09
 79.67899   -204.0 1.661e+04 7.249e-09
 79.68869   -203.9 1.674e+04 6.850e-09
 79.70104   -205.2 1.610e+04 5.977e-09
 79.72145   -206.1 1.509e+04 4.279e-09
 79.74186   -206.8 1.387e+04 2.700e-09
 79.75448   -207.3 1.262e+04 1.626e-09
 79.76469   -207.3 1.303e+04 1.936e-09
 79.78268   -207.6 1.188e+04 1.183e-09
 79.80308   -207.8 1.094e+04 7.438e-10
 79.82027   -207.8 1.028e+04 5.005e-10
 79.83047   -207.6 1.047e+04 5.693e-10
 79.84390   -207.3 9.949e+03 4.022e-10
 79.86431   -206.8 9.687e+03 3.241e-10
 79.88472   -206.5 9.584e+03 2.939e-10
 79.89636   -206.4 9.505e+03 2.689e-10
 79.90134   -205.9 9.472e+03 2.735e-10
 79.92040   -206.1 9.390e+03 2.690e-10
 79.95634   -204.9 9.057e+03 2.078e-10
 79.99716   -203.3 8.747e+03 1.620e-10
 80.02803   -201.6 8.578e+03 1.350e-10
 80.04844   -201.1 8.402e+03 1.235e-10
 80.07879   -199.5 8.250e+03 1.033e-10
 80.11961   -197.9 8.205e+03 9.364e-11
 80.15961   -196.3 8.198e+03 9.077e-11
 80.18002   -195.6 8.209e+03 9.259e-11
 80.20124   -194.1 8.209e+03 9.216e-11
 80.24205   -192.6 8.227e+03 9.260e-11
 80.28287   -191.1 8.277e+03 9.656e-11
 80.31159   -189.5 8.317e+03 1.028e-10
 80.33200   -189.1 8.396e+03 1.179e-10
 80.35773   -187.3 8.421e+03 1.231e-10
 80.37814   -187.2 8.431e+03 1.345e-10
 80.40532   -185.3 8.428e+03 1.348e-10
 80.44317   -183.2 8.427e+03 1.344e-10
 80.46358   -182.7 8.573e+03 1.576e-10
 80.48695   -180.8 8.576e+03 1.574e-10
 80.52777   -179.1 8.623e+03 1.601e-10
 80.56858   -177.7 8.908e+03 1.905e-10
 80.59515   -176.4 9.299e+03 2.566e-10
 80.61556   -177.0 1.037e+04 5.231e-10
 80.65022   -175.5 1.082e+04 7.239e-10
 80.69103   -174.0 1.109e+04 8.965e-10
 80.72673   -172.5 1.116e+04 9.796e-10
 80.74714   -173.2 1.213e+04 1.623e-09
 80.77267   -171.5 1.195e+04 1.542e-09
 80.80262   -169.6 1.152e+04 1.308e-09
 80.81273   -170.3 1.188e+04 1.534e-09
 80.82349   -169.2 1.154e+04 1.278e-09
 80.83569   -168.2 1.129e+04 1.105e-09
 80.84589   -168.2 1.138e+04 1.159e-09
 80.86431   -167.2 1.112e+04 9.967e-10
 80.87852   -166.3 1.090e+04 8.621e-10
 80.89902   -166.8 1.074e+04 7.463e-10
 80.93593   -164.7 1.044e+04 5.990e-10
 80.97675   -162.5 1.035e+04 5.333e-10
 81.00726   -161.2 1.029e+04 5.012e-10
 81.02030   -160.2 1.031e+04 5.001e-10
 81.03060   -162.2 1.039e+04 5.242e-10
 81.04808   -160.4 1.034e+04 4.965e-10
 81.06456   -159.7 1.043e+04 5.129e-10
 81.07476   -159.7 1.054e+04 5.611e-10
 81.08608   -159.0 1.070e+04 5.999e-10
 81.09629   -160.0 1.063e+04 6.040e-10
 81.10920   -159.4 1.076e+04 6.529e-10
 81.12961   -158.9 1.093e+04 7.139e-10
 81.15002   -158.3 1.110e+04 7.815e-10
 81.16208   -157.8 1.124e+04 8.344e-10
 81.17228   -158.9 1.092e+04 7.283e-10
 81.19084   -158.6 1.094e+04 7.270e-10
 81.21124   -158.3 1.089e+04 6.868e-10
 81.22786   -158.1 1.077e+04 6.301e-10
 81.23807   -159.1 1.028e+04 4.680e-10
 81.25206   -158.9 1.012e+04 4.059e-10
 81.27247   -158.7 1.001e+04 3.640e-10
 81.29288   -158.4 9.954e+03 3.407e-10
 81.30363   -157.9 9.931e+03 3.280e-10
 81.30440   -158.4 9.960e+03 3.574e-10
 81.31416   -159.8 9.792e+03 3.237e-10
 81.34409   -158.3 9.677e+03 2.909e-10
 81.38491   -156.8 9.662e+03 2.813e-10
 81.42542   -155.3 9.683e+03 2.802e-10
 81.44583   -156.0 9.853e+03 2.960e-10
 81.46654   -154.7 1.025e+04 3.999e-10
 81.50736   -153.2 1.071e+04 5.661e-10
 81.54817   -151.6 1.114e+04 7.767e-10
 81.57741   -150.0 1.154e+04 1.003e-09
 81.59782   -151.1 1.146e+04 9.878e-10
 81.62981   -150.0 1.181e+04 1.172e-09
 81.67062   -149.4 1.219e+04 1.377e-09
 81.70114   -149.9 1.221e+04 1.317e-09
 81.71899   -150.1 1.237e+04 1.375e-09
 81.72929   -152.3 1.193e+04 8.199e-10
 81.74195   -153.7 1.249e+04 9.968e-10
 81.76137   -157.3 1.306e+04 1.232e-09
 81.77157   -157.5 1.311e+04 1.157e-09
 81.78267   -161.8 1.378e+04 1.707e-09
 81.79498   -166.3 1.438e+04 2.693e-09
 81.80519   -168.1 1.428e+04 2.729e-09
 81.82349   -171.5 1.481e+04 3.584e-09
 81.84390   -175.0 1.502e+04 3.914e-09
 81.86077   -178.3 1.500e+04 3.931e-09
 81.87098   -179.3 1.457e+04 3.462e-09
 81.88471   -181.6 1.379e+04 2.755e-09
 81.90512   -183.5 1.280e+04 2.000e-09
 81.92553   -184.9 1.188e+04 1.496e-09
 81.93676   -185.6 1.122e+04 1.198e-09
 81.94697   -185.5 1.082e+04 1.011e-09
 81.96634   -185.5 1.045e+04 8.473e-10
 81.98675   -185.4 1.015e+04 7.159e-10
 82.00044   -184.9 9.862e+03 5.996e-10
 82.00604   -184.6 9.562e+03 4.447e-10
 82.01276   -184.2 9.273e+03 3.953e-10
 82.03787   -183.9 9.225e+03 3.794e-10
 82.07878   -182.6 9.016e+03 3.324e-10
 82.11960   -180.9 8.784e+03 2.901e-10
 82.14453   -179.2 8.647e+03 2.663e-10
 82.16493   -178.7 8.387e+03 2.309e-10
 82.20123   -176.9 8.340e+03 2.190e-10
 82.22951   -175.2 8.336e+03 2.163e-10
 82.24991   -174.4 8.216e+03 1.967e-10
 82.27610   -172.9 8.380e+03 2.208e-10
 82.29651   -172.5 8.219e+03 1.949e-10
 82.32368   -171.3 8.408e+03 2.232e-10
 82.36450   -170.2 8.588e+03 2.531e-10
 82.40531   -169.5 8.725e+03 2.772e-10
 82.42809   -169.1 8.785e+03 2.884e-10
 82.44849   -169.1 8.584e+03 2.406e-10
 82.48695   -169.1 8.576e+03 2.407e-10
 82.52776   -169.1 8.460e+03 2.251e-10
 82.55966   -169.3 8.315e+03 2.018e-10
 82.58007   -169.5 8.305e+03 1.919e-10
 82.60940   -170.8 8.306e+03 1.915e-10
 82.65021   -172.9 8.311e+03 1.927e-10
 82.68725   -176.3 8.269e+03 2.133e-10
 82.70765   -175.3 8.416e+03 2.127e-10
 82.71165   -180.9 9.518e+03 3.553e-10
 82.73205   -183.7 1.050e+04 4.801e-10
 82.76236   -189.4 1.159e+04 7.477e-10
 82.77724   -194.6 1.302e+04 1.146e-09
 82.78744   -198.0 1.436e+04 1.783e-09
 82.80308   -203.4 1.564e+04 3.239e-09
 82.82349   -207.7 1.637e+04 5.299e-09
 82.84303   -211.1 1.676e+04 7.223e-09
 82.85323   -212.4 1.687e+04 7.747e-09
 82.86430   -215.6 1.697e+04 7.945e-09
 82.88471   -219.1 1.704e+04 7.943e-09
 82.90512   -222.6 1.713e+04 7.847e-09
 82.91902   -226.1 1.725e+04 7.886e-09
 82.92922   -228.6 1.681e+04 7.183e-09
 82.93633   -231.0 1.707e+04 8.414e-09
 82.94653   -230.9 1.690e+04 8.089e-09
 82.96634   -232.9 1.698e+04 8.732e-09
 82.98481   -234.7 1.697e+04 8.824e-09
 82.99501   -235.5 1.682e+04 8.441e-09
 83.00716   -236.6 1.660e+04 8.022e-09
 83.02757   -237.5 1.605e+04 6.627e-09
 83.04797   -238.3 1.530e+04 5.100e-09
 83.06080   -238.9 1.443e+04 3.800e-09
 83.07100   -239.5 1.421e+04 3.471e-09
 83.08879   -239.7 1.336e+04 2.572e-09
 83.10920   -239.7 1.261e+04 1.853e-09
 83.12659   -239.3 1.190e+04 1.302e-09
 83.13679   -239.2 1.178e+04 1.083e-09
 83.15001   -238.4 1.113e+04 7.330e-10
 83.16520   -237.4 1.057e+04 5.020e-10
 83.17540   -237.6 1.056e+04 5.000e-10
 83.19083   -236.6 1.012e+04 3.603e-10
 83.22154   -235.5 9.840e+03 2.802e-10
 83.25836   -234.6 9.724e+03 2.456e-10
 83.27877   -234.5 9.545e+03 2.343e-10
 83.30327   -232.2 9.235e+03 1.869e-10
 83.34409   -229.7 9.043e+03 1.593e-10
 83.38490   -227.2 9.016e+03 1.500e-10
 83.41034   -224.8 9.020e+03 1.486e-10
 83.43075   -224.3 8.904e+03 1.451e-10
 83.46654   -222.0 8.910e+03 1.450e-10
 83.50735   -219.9 9.009e+03 1.493e-10
 83.54192   -218.3 9.498e+03 1.975e-10
 83.56233   -217.7 9.263e+03 1.904e-10
 83.58898   -216.1 9.918e+03 3.154e-10
 83.62313   -214.8 1.059e+04 5.063e-10
 83.64354   -215.2 1.099e+04 6.136e-10
 83.67062   -214.3 1.162e+04 8.561e-10
 83.69380   -213.6 1.146e+04 8.709e-10
 83.70391   -212.9 1.128e+04 9.703e-10
 83.72144   -212.7 1.171e+04 1.066e-09
 83.74185   -212.4 1.197e+04 1.131e-09
 83.75949   -213.0 1.243e+04 1.197e-09
 83.76970   -214.0 1.366e+04 1.491e-09
 83.78267   -215.7 1.551e+04 1.963e-09
 83.80307   -218.0 1.725e+04 2.782e-09
 83.82348   -220.4 1.801e+04 3.973e-09
 83.83549   -222.5 1.782e+04 5.223e-09
 83.84569   -222.9 1.865e+04 9.210e-09
 83.86201   -223.8 1.850e+04 9.550e-09
 83.87221   -223.7 1.806e+04 1.254e-08
 83.88471   -224.5 1.693e+04 9.010e-09
 83.90127   -225.8 1.595e+04 6.547e-09
 83.91143   -225.4 1.638e+04 7.007e-09
 83.92032   -226.7 1.595e+04 5.663e-09
 83.93053   -227.9 1.570e+04 4.801e-09
 83.94588   -229.4 1.555e+04 4.172e-09
 83.96634   -233.0 1.515e+04 3.174e-09
 83.97727   -237.6 1.408e+04 2.207e-09
 83.98747   -237.3 1.483e+04 2.597e-09
 84.00716   -241.1 1.328e+04 1.902e-09
 84.02756   -243.4 1.212e+04 1.453e-09
 84.04305   -244.9 1.150e+04 1.140e-09
 84.05326   -244.8 1.175e+04 1.212e-09
 84.06838   -246.4 1.124e+04 8.870e-10
 84.08879   -248.5 1.085e+04 6.580e-10
 84.10108   -251.0 1.062e+04 5.247e-10
 84.11093   -252.7 1.047e+04 4.522e-10
 84.11905   -253.6 1.080e+04 5.022e-10
 84.12960   -256.4 1.080e+04 4.914e-10
 84.15001   -259.3 1.093e+04 4.949e-10
 84.17042   -262.2 1.111e+04 5.443e-10
 84.18483   -264.8 1.119e+04 6.171e-10
 84.19504   -266.2 1.146e+04 8.083e-10
 84.21124   -268.3 1.144e+04 9.093e-10
 84.23164   -270.2 1.140e+04 9.732e-10
 84.25062   -272.0 1.138e+04 9.902e-10
 84.26083   -272.5 1.174e+04 1.302e-09
 84.27246   -274.1 1.171e+04 1.303e-09
 84.29287   -275.4 1.142e+04 1.211e-09
 84.31328   -276.4 1.101e+04 1.011e-09
 84.32661   -277.0 1.056e+04 8.047e-10
 84.33309   -277.3 1.065e+04 8.509e-10
 84.34016   -277.5 1.073e+04 8.823e-10
 84.35409   -277.8 1.031e+04 7.018e-10
 84.37450   -277.9 9.950e+03 5.619e-10
 84.39250   -277.6 9.647e+03 4.492e-10
 84.40270   -278.4 9.811e+03 4.943e-10
 84.41532   -278.3 9.644e+03 4.453e-10
 84.44603   -278.5 9.550e+03 4.145e-10
 84.48694   -278.4 9.384e+03 3.722e-10
 84.52417   -277.8 9.226e+03 3.373e-10
 84.54458   -278.3 9.100e+03 2.973e-10
 84.55902   -277.6 8.946e+03 2.622e-10
 84.57943   -277.7 9.146e+03 2.809e-10
 84.60939   -277.2 8.992e+03 2.465e-10
 84.65021   -276.8 8.863e+03 2.173e-10
 84.67616   -276.3 8.791e+03 1.985e-10
 84.69656   -276.6 8.675e+03 1.834e-10
 84.73184   -276.0 8.670e+03 1.779e-10
 84.77266   -275.3 8.675e+03 1.772e-10
 84.80773   -274.6 8.787e+03 1.798e-10
 84.82814   -274.8 8.714e+03 1.861e-10
 84.85429   -274.0 8.914e+03 2.132e-10
 84.89510   -273.1 9.131e+03 2.649e-10
 84.93592   -272.1 9.373e+03 3.334e-10
 84.95972   -271.0 9.630e+03 4.115e-10
 84.98012   -270.8 9.783e+03 4.611e-10
 85.01676   -269.8 1.010e+04 5.407e-10
 85.03717   -270.8 9.933e+03 4.330e-10
 85.05837   -270.1 1.003e+04 4.399e-10
 85.09129   -269.6 1.006e+04 4.388e-10
 85.11170   -270.6 1.054e+04 5.750e-10
 85.14000   -270.5 1.056e+04 5.887e-10
 85.18082   -270.4 1.055e+04 5.902e-10
 85.22163   -270.0 1.047e+04 5.707e-10
 85.24328   -269.5 1.035e+04 5.323e-10
 85.26368   -269.9 1.101e+04 8.828e-10
 85.30327   -269.1 1.082e+04 7.905e-10
 85.34408   -268.3 1.060e+04 6.759e-10
 85.37485   -267.3 1.036e+04 5.609e-10
 85.39526   -267.4 1.079e+04 7.888e-10
 85.42571   -266.1 1.045e+04 6.264e-10
 85.46653   -264.7 1.025e+04 5.146e-10
 85.49490   -263.4 1.028e+04 4.691e-10
 85.50501   -263.1 1.027e+04 5.541e-10
 85.51644   -262.6 1.034e+04 5.624e-10
 85.52664   -262.1 1.051e+04 6.182e-10
 85.53776   -261.7 1.068e+04 6.561e-10
 85.55817   -261.5 1.092e+04 7.244e-10
 85.57858   -261.3 1.122e+04 8.162e-10
 85.59243   -261.2 1.156e+04 9.336e-10
 85.60263   -261.0 1.147e+04 9.083e-10
 85.61940   -261.0 1.180e+04 1.034e-09
 85.63980   -261.2 1.213e+04 1.151e-09
 85.65822   -261.6 1.246e+04 1.232e-09
 85.66842   -261.0 1.303e+04 1.405e-09
 85.68062   -261.7 1.369e+04 1.684e-09
 85.70103   -262.4 1.422e+04 1.946e-09
 85.72144   -263.0 1.451e+04 2.100e-09
 85.73378   -263.4 1.456e+04 2.132e-09
 85.73635   -263.2 1.418e+04 2.652e-09
 85.74441   -263.7 1.534e+04 4.078e-09
 85.76225   -263.9 1.504e+04 3.839e-09
 85.78266   -264.0 1.453e+04 3.243e-09
 85.80000   -263.8 1.391e+04 2.633e-09
 85.81020   -263.9 1.472e+04 4.184e-09
 85.82348   -263.4 1.405e+04 3.299e-09
 85.84389   -262.9 1.345e+04 2.688e-09
 85.86429   -262.3 1.297e+04 2.301e-09
 85.87599   -261.5 1.264e+04 2.071e-09
 85.88619   -261.4 1.285e+04 2.395e-09
 85.90511   -260.6 1.264e+04 2.240e-09
 85.92552   -259.7 1.251e+04 2.166e-09
 85.94178   -258.7 1.243e+04 2.135e-09
 85.95198   -258.5 1.271e+04 2.233e-09
 85.96265   -257.4 1.270e+04 2.231e-09
 85.97286   -257.9 1.304e+04 2.599e-09
 85.98674   -256.8 1.301e+04 2.585e-09
 86.00715   -255.5 1.295e+04 2.513e-09
 86.01777   -254.2 1.289e+04 2.353e-09
 86.02797   -254.6 1.312e+04 2.390e-09
 86.04797   -253.4 1.309e+04 2.205e-09
 86.06837   -252.3 1.304e+04 2.020e-09
 86.08356   -251.3 1.297e+04 1.850e-09
 86.09376   -252.3 1.254e+04 1.657e-09
 86.10919   -251.2 1.249e+04 1.573e-09
 86.12960   -250.1 1.249e+04 1.519e-09
 86.14934   -248.9 1.251e+04 1.505e-09
 86.15955   -249.6 1.190e+04 1.361e-09
 86.17042   -248.5 1.193e+04 1.359e-09
 86.19082   -247.4 1.201e+04 1.362e-09
 86.20173   -246.4 1.237e+04 1.399e-09
 86.21193   -246.4 1.317e+04 2.073e-09
 86.22534   -245.5 1.387e+04 2.425e-09
 86.23554   -246.5 1.324e+04 1.905e-09
 86.25205   -246.0 1.399e+04 2.279e-09
 86.27246   -245.5 1.489e+04 2.903e-09
 86.29112   -245.1 1.584e+04 3.828e-09
 86.30133   -246.1 1.468e+04 2.479e-09
 86.31327   -245.7 1.555e+04 2.891e-09
 86.33368   -245.5 1.646e+04 3.355e-09
 86.35409   -245.3 1.737e+04 3.875e-09
 86.36712   -245.3 1.819e+04 4.442e-09
 86.37732   -246.6 1.500e+04 1.417e-09
 86.39490   -247.0 1.537e+04 1.391e-09
 86.41531   -247.5 1.558e+04 1.424e-09
 86.43060   -248.2 1.571e+04 1.503e-09
 86.43798   -248.8 1.630e+04 2.934e-09
 86.44311   -248.8 1.346e+04 1.163e-09
 86.45613   -249.0 1.367e+04 1.183e-09
 86.47654   -249.2 1.407e+04 1.336e-09
 86.49695   -249.3 1.441e+04 1.645e-09
 86.50890   -249.0 1.455e+04 2.072e-09
 86.51910   -248.1 1.346e+04 1.148e-09
 86.53776   -247.8 1.371e+04 1.324e-09
 86.55817   -247.5 1.377e+04 1.517e-09
 86.57468   -247.2 1.360e+04 1.649e-09
 86.58489   -246.4 1.318e+04 1.137e-09
 86.59899   -246.1 1.316e+04 1.148e-09
 86.61939   -245.6 1.304e+04 1.141e-09
 86.63980   -244.8 1.277e+04 1.113e-09
 86.65068   -243.9 1.245e+04 1.066e-09
 86.66013   -243.6 1.241e+04 8.702e-10
 86.66967   -243.7 1.212e+04 7.928e-10
 86.68062   -242.7 1.190e+04 7.319e-10
 86.70103   -241.6 1.170e+04 6.700e-10
 86.71646   -240.5 1.153e+04 6.046e-10
 86.72667   -240.3 1.151e+04 5.247e-10
 86.74184   -239.1 1.136e+04 4.687e-10
 86.76225   -237.7 1.126e+04 4.181e-10
 86.78225   -236.3 1.120e+04 3.778e-10
 86.79246   -236.2 1.116e+04 3.596e-10
 86.80307   -234.9 1.113e+04 3.334e-10
 86.82348   -233.7 1.110e+04 3.151e-10
 86.84388   -232.6 1.105e+04 3.064e-10
 86.85824   -231.2 1.103e+04 3.082e-10
 86.86845   -231.1 1.103e+04 3.078e-10
 86.88843   -229.5 1.103e+04 3.253e-10
 86.90894   -230.0 1.095e+04 2.393e-10
 86.92423   -227.5 1.091e+04 2.368e-10
 86.94463   -227.2 1.089e+04 2.486e-10
 86.97673   -224.8 1.088e+04 2.498e-10
 87.01755   -222.5 1.091e+04 2.657e-10
 87.05580   -220.4 1.114e+04 3.119e-10
 87.07621   -220.5 1.104e+04 3.469e-10
 87.09918   -218.3 1.114e+04 3.755e-10
 87.14000   -216.5 1.134e+04 4.181e-10
 87.18081   -214.8 1.145e+04 4.518e-10
 87.20779   -213.2 1.153e+04 4.797e-10
 87.21789   -213.3 1.133e+04 3.990e-10
 87.23164   -212.6 1.137e+04 4.133e-10
 87.25205   -211.8 1.142e+04 4.337e-10
 87.27245   -211.0 1.147e+04 4.610e-10
 87.28358   -210.3 1.151e+04 4.963e-10
 87.29379   -210.3 1.170e+04 5.314e-10
 87.31327   -209.5 1.171e+04 5.754e-10
 87.33368   -208.7 1.170e+04 6.240e-10
 87.34937   -208.0 1.168e+04 6.752e-10
 87.35958   -208.0 1.184e+04 7.504e-10
 87.36648   -207.2 1.180e+04 7.913e-10
 87.37669   -207.0 1.172e+04 6.833e-10
 87.39490   -206.2 1.172e+04 7.459e-10
 87.41516   -205.6 1.175e+04 8.070e-10
 87.42536   -205.3 1.190e+04 9.183e-10
 87.43572   -204.6 1.194e+04 9.854e-10
 87.45613   -204.0 1.199e+04 1.044e-09
 87.47653   -203.5 1.204e+04 1.084e-09
 87.49115   -203.1 1.208e+04 1.104e-09
 87.50136   -202.5 1.230e+04 1.291e-09
 87.51735   -202.2 1.232e+04 1.310e-09
 87.53776   -202.0 1.231e+04 1.314e-09
 87.55694   -201.9 1.228e+04 1.309e-09
 87.56714   -201.1 1.249e+04 1.522e-09
 87.57858   -201.6 1.261e+04 1.604e-09
 87.59535   -202.3 1.283e+04 1.732e-09
 87.60555   -201.6 1.264e+04 1.650e-09
 87.61939   -202.5 1.286e+04 1.754e-09
 87.63293   -203.6 1.309e+04 1.839e-09
 87.64313   -203.2 1.377e+04 2.826e-09
 87.66021   -204.4 1.393e+04 2.935e-09
 87.68062   -205.9 1.396e+04 2.943e-09
 87.69872   -207.3 1.390e+04 2.654e-09
 87.70892   -206.5 1.431e+04 3.728e-09
 87.72143   -207.7 1.378e+04 2.747e-09
 87.74184   -209.0 1.306e+04 1.961e-09
 87.76225   -210.2 1.231e+04 1.507e-09
 87.77471   -211.0 1.171e+04 1.291e-09
 87.78491   -210.7 1.197e+04 1.377e-09
 87.80306   -211.0 1.152e+04 1.242e-09
 87.82347   -210.9 1.122e+04 1.158e-09
 87.83442   -210.9 1.093e+04 1.045e-09
 87.84125   -209.9 1.105e+04 9.884e-10
 87.85070   -209.8 1.111e+04 9.777e-10
 87.86429   -209.5 1.082e+04 8.817e-10
 87.88470   -208.8 1.046e+04 7.522e-10
 87.90511   -207.8 1.010e+04 6.197e-10
 87.91649   -206.7 9.856e+03 5.297e-10
 87.92669   -206.6 9.923e+03 5.006e-10
 87.95622   -206.0 9.811e+03 4.552e-10
 87.99714   -205.0 9.661e+03 4.151e-10
 88.03795   -203.6 9.493e+03 3.808e-10
 88.07877   -202.0 9.556e+03 3.779e-10
 88.11959   -200.8 9.697e+03 4.375e-10
 88.16040   -199.7 9.914e+03 5.149e-10
 88.19004   -198.8 1.002e+04 5.634e-10
 88.21045   -199.3 1.060e+04 8.197e-10
 88.24203   -198.5 1.062e+04 8.443e-10
 88.28215   -197.5 1.046e+04 8.020e-10
 88.30256   -196.4 1.046e+04 8.014e-10
 88.32162   -195.4 1.024e+04 7.506e-10
 88.34203   -195.7 1.033e+04 7.910e-10
 88.36448   -194.6 9.981e+03 6.588e-10
 88.40530   -193.5 9.658e+03 5.371e-10
 88.44612   -192.5 9.414e+03 4.512e-10
 88.47360   -191.6 9.206e+03 3.881e-10
 88.49401   -192.2 9.197e+03 3.641e-10
 88.52775   -191.4 8.922e+03 2.932e-10
 88.56856   -190.6 8.604e+03 2.288e-10
 88.60518   -189.7 8.325e+03 1.805e-10
 88.62559   -190.7 8.372e+03 1.761e-10
 88.65020   -190.1 8.346e+03 1.582e-10
 88.69101   -189.5 8.360e+03 1.556e-10
 88.73183   -189.1 8.543e+03 1.634e-10
 88.75716   -188.6 8.767e+03 1.990e-10
 88.76523   -189.9 9.137e+03 3.074e-10
 88.78071   -188.7 8.991e+03 2.725e-10
 88.81346   -188.0 9.143e+03 3.221e-10
 88.85428   -187.2 9.333e+03 3.829e-10
 88.88874   -186.2 9.513e+03 4.387e-10
 88.90915   -186.9 9.577e+03 4.570e-10
 88.93591   -185.8 9.647e+03 4.732e-10
 88.97673   -184.7 9.655e+03 4.723e-10
 89.01754   -183.6 9.614e+03 4.507e-10
 89.04072   -182.2 9.531e+03 4.157e-10
 89.06113   -182.5 9.135e+03 2.736e-10
 89.09917   -180.9 9.104e+03 2.538e-10
 89.13999   -179.2 9.100e+03 2.404e-10
 89.17230   -177.4 9.097e+03 2.299e-10
 89.19271   -177.4 8.886e+03 1.675e-10
 89.21804   -175.4 8.891e+03 1.607e-10
 89.23845   -174.6 8.939e+03 1.770e-10
 89.26244   -172.6 8.914e+03 1.640e-10
 89.30326   -170.5 8.859e+03 1.541e-10
 89.32428   -168.5 8.780e+03 1.453e-10
 89.34469   -168.2 8.569e+03 1.134e-10
 89.38489   -166.0 8.486e+03 1.043e-10
 89.42570   -163.9 8.407e+03 9.723e-11
 89.45586   -161.7 8.344e+03 9.236e-11
 89.47626   -161.2 8.212e+03 7.233e-11
 89.50734   -159.1 8.162e+03 6.884e-11
 89.54815   -156.9 8.132e+03 6.724e-11
 89.58743   -154.8 8.125e+03 6.683e-11
 89.60784   -154.3 8.080e+03 6.155e-11
 89.62979   -152.2 8.076e+03 6.162e-11
 89.67060   -150.3 8.074e+03 6.265e-11
 89.69619   -148.4 8.097e+03 6.451e-11
 89.71660   -147.7 8.151e+03 7.689e-11
 89.73942   -145.9 8.166e+03 7.898e-11
 89.75982   -145.4 8.225e+03 9.587e-11
 89.79305   -143.6 8.220e+03 9.661e-11
 89.83387   -141.8 8.215e+03 9.731e-11
 89.87099   -140.1 8.273e+03 1.006e-10
 89.89140   -139.6 8.344e+03 1.351e-10
 89.91550   -137.9 8.335e+03 1.343e-10
 89.95632   -136.3 8.395e+03 1.361e-10
 89.99713   -134.7 8.521e+03 1.514e-10
 90.02298   -133.1 8.622e+03 1.698e-10
 90.04338   -132.9 8.454e+03 1.519e-10
 90.07876   -131.4 8.477e+03 1.560e-10
 90.11958   -130.0 8.515e+03 1.615e-10
 90.15393   -128.6 8.583e+03 1.729e-10
 90.16849   -127.3 8.569e+03 1.727e-10
 90.17496   -127.1 8.291e+03 1.359e-10
 90.20121   -125.9 8.355e+03 1.412e-10
 90.24203   -125.0 8.626e+03 1.742e-10
 90.28285   -124.3 9.037e+03 2.497e-10
 90.30654   -123.5 9.506e+03 3.801e-10
 90.32694   -123.8 9.514e+03 3.761e-10
 90.36448   -122.8 9.961e+03 5.475e-10
 90.40529   -121.9 1.029e+04 6.916e-10
 90.43811   -120.9 1.046e+04 7.609e-10
 90.45852   -121.0 1.032e+04 7.051e-10
 90.48693   -119.8 1.034e+04 7.147e-10
 90.52774   -118.6 1.044e+04 7.425e-10
 90.56856   -117.3 1.070e+04 8.122e-10
 90.59010   -116.2 1.102e+04 9.128e-10
 90.61050   -116.4 1.116e+04 1.034e-09
 90.63198   -115.8 1.153e+04 1.200e-09
 90.64208   -115.9 1.177e+04 1.333e-09
 90.65569   -115.9 1.202e+04 1.462e-09
 90.66589   -116.2 1.232e+04 1.691e-09
 90.68061   -116.8 1.318e+04 2.204e-09
 90.70102   -118.1 1.439e+04 3.082e-09
 90.72142   -119.4 1.563e+04 4.699e-09
 90.74183   -120.0 1.739e+04 1.089e-08
 90.76224   -120.5 1.815e+04 1.429e-08
 90.78265   -121.4 1.838e+04 1.534e-08
 90.79747   -122.3 1.820e+04 1.474e-08
 90.80767   -121.9 1.858e+04 1.745e-08
 90.82346   -122.1 1.785e+04 1.270e-08
 90.84387   -122.9 1.689e+04 8.192e-09
 90.86075   -124.2 1.585e+04 5.213e-09
 90.86993   -125.7 1.672e+04 7.462e-09
 90.87346   -125.6 1.785e+04 1.064e-08
 90.88469   -126.7 1.701e+04 7.958e-09
 90.90510   -127.2 1.598e+04 5.967e-09
 90.92551   -127.3 1.503e+04 4.592e-09
 90.93925   -126.9 1.421e+04 3.583e-09
 90.94945   -126.6 1.543e+04 4.800e-09
 90.96632   -125.8 1.444e+04 3.652e-09
 90.98673   -124.9 1.382e+04 2.961e-09
 91.00504   -123.9 1.328e+04 2.453e-09
 91.01524   -123.8 1.384e+04 2.877e-09
 91.02755   -122.6 1.335e+04 2.409e-09
 91.04795   -121.6 1.307e+04 2.185e-09
 91.06836   -120.6 1.289e+04 2.063e-09
 91.08103   -119.4 1.276e+04 1.984e-09
 91.09123   -119.3 1.293e+04 2.086e-09
 91.09982   -118.1 1.279e+04 2.004e-09
 91.11003   -118.2 1.272e+04 2.146e-09
 91.12959   -117.2 1.265e+04 2.069e-09
 91.14682   -116.0 1.262e+04 1.993e-09
 91.15702   -116.0 1.282e+04 2.097e-09
 91.17040   -114.7 1.276e+04 1.983e-09
 91.19081   -113.5 1.276e+04 1.946e-09
 91.21122   -112.4 1.278e+04 1.943e-09
 91.22281   -111.3 1.293e+04 1.952e-09
 91.23301   -111.5 1.300e+04 1.952e-09
 91.25204   -110.7 1.346e+04 2.080e-09
 91.27244   -110.5 1.404e+04 2.452e-09
 91.28860   -110.4 1.462e+04 3.124e-09
 91.29880   -111.1 1.496e+04 3.517e-09
 91.31326   -110.6 1.555e+04 4.698e-09
 91.32869   -110.0 1.632e+04 6.541e-09
 91.33890   -109.5 1.576e+04 5.698e-09
 91.35408   -108.8 1.652e+04 7.712e-09
 91.36459   -108.2 1.731e+04 1.030e-08
 91.37479   -108.7 1.736e+04 9.833e-09
 91.39489   -108.2 1.785e+04 1.140e-08
 91.41530   -107.9 1.813e+04 1.234e-08
 91.43038   -107.6 1.819e+04 1.256e-08
 91.44058   -108.8 1.801e+04 1.032e-08
 91.45612   -108.8 1.798e+04 9.425e-09
 91.47652   -108.9 1.787e+04 8.304e-09
 91.49616   -109.3 1.786e+04 7.206e-09
 91.50637   -112.1 1.779e+04 8.480e-09
 91.51734   -112.7 1.790e+04 9.278e-09
 91.53775   -113.1 1.796e+04 1.058e-08
 91.55756   -112.9 1.799e+04 1.228e-08
 91.56777   -112.7 1.792e+04 1.398e-08
 91.57216   -111.7 1.802e+04 1.581e-08
 91.58236   -111.6 1.829e+04 1.897e-08
 91.59897   -111.0 1.826e+04 1.810e-08
 91.61938   -110.3 1.819e+04 1.730e-08
 91.63794   -109.5 1.799e+04 1.568e-08
 91.64815   -109.4 1.703e+04 1.076e-08
 91.66020   -109.0 1.667e+04 8.947e-09
 91.68061   -108.7 1.631e+04 7.362e-09
 91.70101   -108.4 1.586e+04 5.864e-09
 91.71394   -108.0 1.534e+04 4.482e-09
 91.72414   -108.8 1.492e+04 3.396e-09
 91.74183   -108.2 1.442e+04 2.449e-09
 91.76224   -107.7 1.385e+04 1.677e-09
 91.77972   -107.6 1.315e+04 1.120e-09
 91.78993   -108.6 1.250e+04 9.009e-10
 91.79663   -108.6 1.168e+04 6.474e-10
 91.80684   -109.2 1.080e+04 4.403e-10
 91.82346   -108.6 1.046e+04 3.809e-10
 91.84387   -107.8 1.024e+04 3.405e-10
 91.85572   -106.9 1.015e+04 3.217e-10
 91.86592   -107.1 1.019e+04 3.413e-10
 91.88469   -106.1 1.017e+04 3.390e-10
 91.91540   -105.2 1.021e+04 3.525e-10
 91.95631   -103.4 1.019e+04 3.524e-10
 91.98749   -101.6 1.025e+04 3.913e-10
 92.00789   -102.1 1.031e+04 4.146e-10
 92.02570   -100.3 1.050e+04 4.849e-10
 92.04611   -100.0 1.067e+04 5.442e-10
 92.07876    -98.4 1.091e+04 6.657e-10
 92.11906    -96.9 1.109e+04 7.588e-10
 92.13947    -97.8 1.119e+04 8.151e-10
 92.16039    -96.4 1.127e+04 8.484e-10
 92.20121    -95.0 1.137e+04 8.769e-10
 92.23172    -93.9 1.148e+04 8.991e-10
 92.25203    -93.5 1.147e+04 8.970e-10
 92.26458    -92.6 1.156e+04 9.274e-10
 92.27319    -93.0 1.163e+04 9.678e-10
 92.28106    -93.5 1.152e+04 9.441e-10
 92.29285    -93.0 1.159e+04 9.712e-10
 92.31326    -92.6 1.167e+04 1.003e-09
 92.33367    -92.3 1.173e+04 1.036e-09
 92.34684    -91.9 1.188e+04 1.088e-09
 92.35705    -92.2 1.170e+04 9.891e-10
 92.37448    -92.0 1.180e+04 1.016e-09
 92.39489    -91.9 1.189e+04 1.032e-09
 92.41263    -92.0 1.199e+04 1.054e-09
 92.42284    -91.9 1.177e+04 9.619e-10
 92.43571    -92.0 1.185e+04 9.743e-10
 92.45611    -92.4 1.193e+04 1.005e-09
 92.47652    -92.9 1.196e+04 1.049e-09
 92.48862    -93.2 1.196e+04 1.058e-09
 92.49534    -92.7 1.172e+04 9.582e-10
 92.50365    -93.6 1.215e+04 1.183e-09
 92.51734    -93.6 1.195e+04 1.140e-09
 92.53775    -93.5 1.173e+04 1.029e-09
 92.55441    -93.3 1.148e+04 9.108e-10
 92.56462    -92.7 1.153e+04 9.254e-10
 92.57856    -92.4 1.129e+04 8.099e-10
 92.59897    -91.9 1.108e+04 7.117e-10
 92.61938    -91.3 1.092e+04 6.323e-10
 92.63040    -90.6 1.082e+04 5.684e-10
 92.64061    -90.3 1.104e+04 6.433e-10
 92.66020    -89.6 1.097e+04 5.864e-10
 92.68060    -88.8 1.089e+04 5.404e-10
 92.69619    -87.9 1.077e+04 5.099e-10
 92.70639    -87.8 1.100e+04 6.154e-10
 92.72142    -86.8 1.088e+04 5.881e-10
 92.73252    -85.8 1.080e+04 5.729e-10
 92.74272    -86.6 1.089e+04 6.394e-10
 92.76198    -85.5 1.083e+04 6.277e-10
 92.77218    -85.3 1.092e+04 7.345e-10
 92.78264    -84.2 1.091e+04 7.299e-10
 92.80305    -83.2 1.095e+04 7.413e-10
 92.82346    -82.3 1.106e+04 7.831e-10
 92.83797    -81.4 1.127e+04 8.733e-10
 92.84817    -81.5 1.130e+04 8.817e-10
 92.86428    -80.9 1.158e+04 1.033e-09
 92.88468    -80.3 1.187e+04 1.239e-09
 92.90376    -79.4 1.219e+04 1.496e-09
 92.91396    -79.8 1.199e+04 1.407e-09
 92.92550    -78.9 1.226e+04 1.665e-09
 92.94591    -78.0 1.249e+04 1.903e-09
 92.96139    -77.1 1.261e+04 2.060e-09
 92.97159    -77.7 1.306e+04 2.676e-09
 92.97975    -76.8 1.307e+04 2.711e-09
 92.98995    -76.7 1.245e+04 2.071e-09
 93.00713    -75.6 1.235e+04 2.018e-09
 93.02754    -74.5 1.215e+04 1.845e-09
 93.04554    -73.4 1.193e+04 1.633e-09
 93.05574    -73.3 1.143e+04 1.249e-09
 93.06836    -72.3 1.130e+04 1.120e-09
 93.08877    -71.3 1.123e+04 1.001e-09
 93.10917    -70.4 1.119e+04 9.054e-10
 93.12153    -69.5 1.117e+04 8.363e-10
 93.13173    -69.4 1.080e+04 7.421e-10
 93.14999    -68.5 1.082e+04 7.219e-10
 93.17040    -67.5 1.083e+04 7.097e-10
 93.18732    -66.5 1.083e+04 7.018e-10
 93.19698    -66.1 1.059e+04 6.801e-10
 93.20046    -66.5 1.063e+04 8.195e-10
 93.21121    -65.4 1.065e+04 8.249e-10
 93.23162    -64.1 1.062e+04 8.144e-10
 93.25203    -62.8 1.059e+04 7.641e-10
 93.26331    -61.4 1.045e+04 7.040e-10
 93.27351    -61.0 1.038e+04 7.118e-10
 93.29285    -59.6 1.023e+04 6.438e-10
 93.31325    -58.1 1.005e+04 5.656e-10
 93.32910    -56.6 9.916e+03 4.802e-10
 93.33930    -56.2 9.878e+03 4.919e-10
 93.35407    -54.8 9.773e+03 4.200e-10
 93.38478    -53.8 9.641e+03 3.452e-10
 93.41932    -50.5 9.348e+03 3.035e-10
 93.43973    -50.9 1.013e+04 5.112e-10
 93.46651    -47.7 9.654e+03 3.939e-10
 93.50733    -45.1 9.403e+03 3.158e-10
 93.53686    -42.6 9.239e+03 2.641e-10
 93.55727    -41.7 9.263e+03 2.981e-10
 93.58896    -39.4 9.254e+03 2.857e-10
 93.62978    -37.5 9.394e+03 2.934e-10
 93.66844    -35.7 9.588e+03 3.358e-10
 93.68885    -35.4 1.014e+04 5.328e-10
 93.71141    -33.5 1.071e+04 6.861e-10
 93.74192    -32.2 1.078e+04 6.868e-10
 93.75444    -31.5 1.081e+04 6.771e-10
 93.76464    -31.6 1.160e+04 1.074e-09
 93.78264    -30.7 1.165e+04 1.075e-09
 93.80305    -29.9 1.143e+04 9.322e-10
 93.82032    -29.7 1.076e+04 6.551e-10
 93.83053    -28.7 1.186e+04 1.301e-09
 93.84387    -28.3 1.154e+04 1.051e-09
 93.86427    -28.6 1.141e+04 9.498e-10
 93.88468    -29.2 1.138e+04 9.068e-10
 93.89622    -29.9 1.143e+04 8.867e-10
 93.89861    -30.7 1.209e+04 1.202e-09
 93.90748    -29.3 1.244e+04 1.337e-09
 93.92550    -30.4 1.276e+04 1.606e-09
 93.94591    -31.1 1.321e+04 2.155e-09
 93.96201    -31.9 1.395e+04 2.975e-09
 93.97221    -31.9 1.481e+04 3.684e-09
 93.98672    -32.5 1.549e+04 4.427e-09
 94.00713    -33.5 1.574e+04 4.820e-09
 94.02754    -34.5 1.554e+04 4.694e-09
 94.03800    -35.4 1.507e+04 3.942e-09
 94.04820    -35.9 1.390e+04 2.728e-09
 94.06835    -37.0 1.311e+04 1.846e-09
 94.08876    -39.4 1.192e+04 1.080e-09
 94.10379    -42.3 1.060e+04 6.596e-10
 94.11399    -41.1 1.043e+04 5.571e-10
 94.12615    -43.4 9.945e+03 4.757e-10
 94.13635    -41.0 1.021e+04 5.237e-10
 94.14999    -42.4 9.907e+03 4.780e-10
 94.16957    -44.1 9.964e+03 4.800e-10
 94.17978    -48.8 2.364e+04 3.399e-10
 94.19080    -68.2 8.539e+04 2.520e-10
 94.21121    -79.0 8.111e+04 1.089e-09
 94.23162    -76.4 5.333e+04 7.123e-09
 94.24552    -67.9 4.801e+04 9.829e-09
 94.24933    -69.1 3.296e+04 4.395e-08
 94.25069    -73.1 2.252e+04 2.249e-07
 94.25703    -67.6 2.611e+04 1.003e-07
 94.26724    -62.1 3.440e+04 3.109e-08
 94.27744    -58.4 4.636e+04 6.998e-09
 94.28346    -59.8 5.681e+04 2.608e-09
 94.28857    -63.4 6.302e+04 3.141e-09
 94.29785    -69.1 6.904e+04 1.915e-09
 94.30805    -85.9 5.737e+04 2.471e-09
 94.31636    -90.1 5.716e+04 2.412e-09
 94.32146   -102.8 5.521e+04 6.483e-09
 94.32846   -106.4 4.822e+04 9.331e-09
 94.33866   -108.5 4.334e+04 1.267e-08
 94.34887   -110.0 3.921e+04 1.662e-08
 94.35435   -111.1 3.573e+04 2.112e-08
 94.35946   -115.5 2.558e+04 7.487e-08
 94.36512   -115.5 2.451e+04 7.803e-08
 94.37022   -117.4 2.359e+04 1.078e-07
 94.37948   -116.9 2.320e+04 1.060e-07
 94.38725   -116.2 2.293e+04 1.062e-07
 94.39235   -117.4 2.425e+04 1.099e-07
 94.39989   -116.4 2.392e+04 1.097e-07
 94.41009   -115.1 2.363e+04 1.155e-07
 94.42014   -113.7 2.412e+04 1.194e-07
 94.42524   -116.6 3.037e+04 3.906e-08
 94.43050   -115.9 3.090e+04 3.199e-08
 94.44071   -115.5 3.139e+04 2.337e-08
 94.45091   -115.3 3.111e+04 1.551e-08
 94.45814   -115.6 3.031e+04 9.643e-09
 94.46324   -124.7 1.956e+04 1.649e-09
 94.47132   -125.8 1.655e+04 1.316e-09
 94.47956   -126.5 1.444e+04 1.144e-09
 94.48466   -128.0 1.200e+04 1.048e-09
 94.49103   -127.6 1.116e+04 9.431e-10
 94.49613   -128.1 1.023e+04 8.460e-10
 94.50193   -127.8 1.014e+04 8.262e-10
 94.51213   -126.8 9.863e+03 7.581e-10
 94.52234   -126.4 9.804e+03 7.395e-10
 94.52903   -125.4 9.606e+03 6.724e-10
 94.53928   -125.3 9.430e+03 5.808e-10
 94.55815   -123.9 9.248e+03 5.055e-10
 94.57856   -122.7 9.120e+03 4.506e-10
 94.59409   -121.6 8.995e+03 4.099e-10
 94.60024   -121.8 9.140e+03 4.346e-10
 94.60512   -121.8 8.748e+03 3.310e-10
 94.61937   -120.4 8.602e+03 2.991e-10
 94.63978   -119.0 8.534e+03 2.807e-10
 94.66019   -117.6 8.525e+03 2.732e-10
 94.67091   -116.2 8.528e+03 2.716e-10
 94.68111   -115.6 8.384e+03 2.319e-10
 94.70101   -114.7 8.384e+03 2.308e-10
 94.72141   -113.3 8.481e+03 2.392e-10
 94.73669   -112.9 8.603e+03 2.578e-10
 94.74690   -112.5 8.512e+03 2.309e-10
 94.76223   -111.9 8.899e+03 2.931e-10
 94.78264   -111.7 9.195e+03 3.756e-10
 94.80248   -111.3 9.520e+03 5.013e-10
 94.81269   -111.4 9.585e+03 5.027e-10
 94.82296   -111.1 9.947e+03 6.827e-10
 94.83316   -111.6 1.074e+04 9.672e-10
 94.84386   -111.3 1.124e+04 1.164e-09
 94.86427   -111.2 1.141e+04 1.218e-09
 94.87847   -111.7 1.141e+04 1.179e-09
 94.88868   -111.5 1.278e+04 1.787e-09
 94.90509   -111.7 1.225e+04 1.358e-09
 94.92550   -112.8 1.125e+04 9.717e-10
 94.94426   -114.4 1.063e+04 8.548e-10
 94.95447   -113.8 1.120e+04 9.323e-10
 94.96631   -115.2 1.048e+04 8.281e-10
 94.98672   -115.5 1.039e+04 8.207e-10
 95.00713   -115.6 1.031e+04 8.365e-10
 95.02025   -115.7 1.030e+04 8.407e-10
 95.03046   -115.7 1.031e+04 8.410e-10
 95.04794   -115.7 1.018e+04 8.193e-10
 95.06203   -115.8 1.004e+04 7.590e-10
 95.07224   -116.0 9.948e+03 7.181e-10
 95.08604   -116.3 9.797e+03 6.267e-10
 95.09625   -116.4 9.802e+03 6.657e-10
 95.10917   -117.2 9.736e+03 6.192e-10
 95.12958   -118.2 9.786e+03 6.009e-10
 95.14998   -119.1 9.896e+03 5.948e-10
 95.16203   -120.3 1.020e+04 6.181e-10
 95.17224   -121.0 1.054e+04 7.531e-10
 95.19080   -123.7 1.109e+04 9.205e-10
 95.21121   -128.7 1.332e+04 1.571e-09
 95.22782   -133.8 1.590e+04 3.531e-09
 95.23802   -131.7 1.467e+04 2.581e-09
 95.25203   -135.8 1.672e+04 5.260e-09
 95.27243   -138.7 1.785e+04 9.140e-09
 95.28769   -140.0 1.827e+04 1.140e-08
 95.29591   -140.6 1.849e+04 1.214e-08
 95.30106   -141.3 1.929e+04 1.515e-08
 95.30376   -142.2 1.937e+04 1.596e-08
 95.30882   -142.0 1.912e+04 1.493e-08
 95.31825   -142.6 1.942e+04 1.588e-08
 95.32846   -143.6 1.956e+04 1.655e-08
 95.33661   -144.5 1.933e+04 1.532e-08
 95.34171   -143.9 1.953e+04 1.626e-08
 95.34887   -144.9 1.918e+04 1.499e-08
 95.35907   -145.8 1.827e+04 1.163e-08
 95.36955   -146.7 1.724e+04 8.495e-09
 95.37976   -145.8 1.749e+04 9.900e-09
 95.39483   -145.7 1.738e+04 9.180e-09
 95.41529   -145.6 1.679e+04 6.067e-09
 95.43539   -145.8 1.601e+04 3.457e-09
 95.44559   -144.9 1.702e+04 6.917e-09
 95.45611   -144.7 1.648e+04 4.712e-09
 95.47651   -144.4 1.587e+04 2.774e-09
 95.49692   -143.6 1.509e+04 1.377e-09
 95.51138   -142.8 1.403e+04 6.072e-10
 95.52158   -141.2 1.587e+04 2.664e-09
 95.52998   -140.0 1.493e+04 1.269e-09
 95.54018   -140.1 1.498e+04 1.545e-09
 95.55815   -138.9 1.416e+04 7.880e-10
 95.57717   -137.5 1.350e+04 5.129e-10
 95.58737   -136.6 1.485e+04 1.558e-09
 95.59896   -135.6 1.425e+04 8.497e-10
 95.62967   -135.0 1.263e+04 2.281e-10
 95.65336   -133.0 1.161e+04 1.188e-10
 95.66346   -131.7 1.457e+04 6.748e-10
 95.68060   -131.0 1.457e+04 4.357e-10
 95.70100   -129.8 1.483e+04 3.523e-10
 95.71895   -129.3 1.474e+04 2.655e-10
 95.72915   -129.5 1.570e+04 8.306e-10
 95.74874   -128.4 1.428e+04 2.250e-10
 95.76915   -128.7 1.535e+04 1.052e-09
 95.78264   -127.4 1.509e+04 7.127e-10
 95.79494   -126.6 1.475e+04 5.140e-10
 95.80514   -127.4 1.525e+04 1.832e-09
 95.82345   -126.4 1.491e+04 1.374e-09
 95.84386   -125.4 1.466e+04 1.034e-09
 95.86073   -124.2 1.448e+04 8.051e-10
 95.87093   -124.8 1.551e+04 3.123e-09
 95.88468   -123.5 1.531e+04 2.585e-09
 95.90508   -122.3 1.512e+04 2.087e-09
 95.92549   -121.0 1.483e+04 1.633e-09
 95.93672   -119.7 1.455e+04 1.300e-09
 95.94692   -120.3 1.560e+04 3.881e-09
 95.96631   -119.2 1.520e+04 3.067e-09
 95.98672   -118.4 1.477e+04 2.515e-09
 95.99792   -117.7 1.451e+04 2.310e-09
 96.00351   -117.6 1.469e+04 3.160e-09
 96.01271   -118.2 1.547e+04 4.618e-09
 96.02753   -117.4 1.543e+04 4.557e-09
 96.04794   -116.9 1.549e+04 4.747e-09
 96.06830   -116.3 1.570e+04 5.311e-09
 96.08870   -116.3 1.616e+04 6.315e-09
 96.10917   -115.9 1.618e+04 6.455e-09
 96.12957   -115.1 1.588e+04 6.238e-09
 96.14429   -114.1 1.544e+04 5.356e-09
 96.15449   -114.7 1.549e+04 5.369e-09
 96.17039   -113.9 1.498e+04 4.441e-09
 96.19080   -113.2 1.446e+04 3.551e-09
 96.21008   -112.4 1.396e+04 2.871e-09
 96.22028   -113.1 1.382e+04 2.887e-09
 96.22679   -112.2 1.350e+04 2.441e-09
 96.23699   -112.0 1.345e+04 2.551e-09
 96.25202   -110.9 1.325e+04 2.259e-09
 96.27243   -109.9 1.303e+04 1.949e-09
 96.28607   -108.8 1.276e+04 1.652e-09
 96.29627   -109.1 1.236e+04 1.612e-09
 96.31325   -108.0 1.215e+04 1.384e-09
 96.33366   -107.1 1.187e+04 1.190e-09
 96.35186   -106.3 1.158e+04 1.029e-09
 96.36206   -106.3 1.130e+04 9.318e-10
 96.37447   -105.3 1.105e+04 8.155e-10
 96.39488   -104.2 1.090e+04 7.451e-10
 96.41529   -103.0 1.085e+04 7.072e-10
 96.42785   -101.7 1.085e+04 6.839e-10
 96.43805   -101.5 1.054e+04 5.702e-10
 96.45566   -100.2 1.055e+04 5.555e-10
 96.46586   -100.0 1.059e+04 5.646e-10
 96.47651    -98.7 1.057e+04 5.524e-10
 96.49364    -97.4 1.058e+04 5.468e-10
 96.50384    -97.3 1.029e+04 4.556e-10
 96.52763    -95.3 1.019e+04 4.233e-10
 96.56854    -92.8 1.023e+04 4.205e-10
 96.60936    -90.3 1.009e+04 3.892e-10
 96.63561    -87.3 9.970e+03 3.451e-10
 96.65602    -86.6 9.622e+03 2.976e-10
 96.68472    -83.9 9.617e+03 2.779e-10
 96.70513    -83.7 9.673e+03 2.888e-10
 96.73181    -81.2 9.693e+03 2.821e-10
 96.76719    -78.8 9.802e+03 3.027e-10
 96.78760    -77.8 9.488e+03 2.428e-10
 96.81344    -75.5 9.674e+03 2.723e-10
 96.85426    -73.3 9.844e+03 3.292e-10
 96.89507    -71.1 9.999e+03 4.024e-10
 96.91917    -68.8 1.012e+04 4.600e-10
 96.93958    -68.0 9.891e+03 3.820e-10
 96.97671    -65.6 1.003e+04 4.456e-10
 97.01752    -63.1 1.013e+04 4.637e-10
 97.05075    -60.9 1.022e+04 4.376e-10
 97.07115    -60.0 1.020e+04 4.959e-10
 97.09915    -58.1 1.027e+04 4.714e-10
 97.13997    -56.2 1.023e+04 4.161e-10
 97.16287    -54.1 1.003e+04 3.590e-10
 97.18328    -53.7 9.628e+03 2.613e-10
 97.20273    -51.2 9.421e+03 2.219e-10
 97.22314    -50.3 9.514e+03 2.369e-10
 97.26242    -47.7 9.219e+03 1.830e-10
 97.30324    -44.9 9.021e+03 1.423e-10
 97.33431    -42.2 8.996e+03 1.138e-10
 97.35471    -41.5 9.016e+03 1.143e-10
 97.38487    -39.3 9.027e+03 1.077e-10
 97.42568    -37.3 9.110e+03 1.194e-10
 97.46588    -34.9 9.082e+03 1.705e-10
 97.48629    -34.4 9.237e+03 1.764e-10
 97.50732    -31.1 9.115e+03 2.251e-10
 97.54813    -28.0 9.221e+03 2.331e-10
 97.58895    -25.2 9.195e+03 2.295e-10
 97.61787    -22.4 9.173e+03 2.274e-10
 97.62912    -22.0 9.222e+03 2.275e-10
 97.64102    -21.7 9.167e+03 1.548e-10
 97.67058    -19.2 9.188e+03 1.646e-10
 97.71140    -16.6 9.191e+03 1.913e-10
 97.74944    -13.9 9.307e+03 2.334e-10
 97.76985    -13.9 9.580e+03 2.513e-10
 97.79303    -11.2 9.747e+03 3.332e-10
 97.83385     -8.4 9.886e+03 4.109e-10
 97.87466     -5.5 9.983e+03 4.621e-10
 97.90143     -2.7 1.005e+04 4.955e-10
 97.92183     -2.8 1.036e+04 5.839e-10
 97.95630     -0.1 1.033e+04 5.760e-10
 97.99711      2.7 1.024e+04 5.412e-10
 98.03300      5.5 1.012e+04 4.846e-10
 98.05341      5.1 1.019e+04 4.940e-10
 98.07835      7.8 1.010e+04 4.364e-10
 98.09876      7.5 1.012e+04 4.145e-10
 98.11956     10.2 1.017e+04 3.983e-10
 98.16038     12.8 1.021e+04 4.070e-10
 98.18499     15.3 1.036e+04 4.422e-10
 98.20539     14.7 1.032e+04 4.048e-10
 98.24201     17.1 1.048e+04 4.962e-10
 98.28283     19.4 1.078e+04 6.731e-10
 98.31656     21.4 1.126e+04 9.826e-10
 98.33697     21.1 1.095e+04 6.935e-10
 98.36446     22.6 1.162e+04 1.100e-09
 98.40527     23.7 1.236e+04 1.597e-09
 98.44609     24.3 1.258e+04 1.729e-09
 98.46855     24.4 1.245e+04 1.506e-09
 98.47865     22.9 1.298e+04 1.730e-09
 98.49692     22.8 1.306e+04 1.730e-09
 98.52762     22.3 1.326e+04 1.793e-09
 98.55649     22.5 1.273e+04 1.336e-09
 98.57690     22.6 1.240e+04 1.282e-09
 98.60012     23.4 1.164e+04 7.835e-10
 98.62053     22.4 1.203e+04 8.969e-10
 98.65017     23.2 1.121e+04 5.377e-10
 98.69099     24.6 1.109e+04 4.792e-10
 98.73170     26.6 1.108e+04 4.893e-10
 98.77251     27.6 1.119e+04 5.204e-10
 98.81344     29.6 1.139e+04 6.049e-10
 98.85425     31.4 1.164e+04 7.536e-10
 98.88368     33.3 1.195e+04 9.785e-10
 98.90409     32.5 1.253e+04 1.056e-09
 98.93588     34.3 1.276e+04 1.310e-09
 98.97670     35.7 1.305e+04 1.629e-09
 99.00722     36.2 1.338e+04 1.809e-09
 99.02424     36.1 1.383e+04 2.063e-09
 99.03219     36.6 1.408e+04 2.005e-09
 99.03547     35.4 1.476e+04 2.747e-09
 99.04793     35.1 1.538e+04 3.914e-09
 99.06834     35.1 1.582e+04 5.481e-09
 99.08875     35.5 1.601e+04 6.721e-09
 99.10126     35.8 1.595e+04 6.892e-09
 99.11146     35.4 1.648e+04 9.108e-09
 99.12957     35.9 1.608e+04 7.795e-09
 99.14997     36.4 1.546e+04 5.907e-09
 99.16705     36.7 1.473e+04 4.180e-09
 99.17725     36.5 1.474e+04 4.217e-09
 99.19079     36.6 1.402e+04 2.919e-09
 99.21120     36.8 1.347e+04 2.092e-09
 99.23161     37.1 1.307e+04 1.629e-09
 99.24304     37.9 1.278e+04 1.307e-09
 99.25324     37.6 1.271e+04 1.273e-09
 99.26332     38.6 1.250e+04 1.046e-09
 99.27352     38.8 1.244e+04 1.070e-09
 99.29283     40.0 1.226e+04 8.670e-10
 99.30883     40.8 1.217e+04 7.392e-10
 99.31903     40.6 1.211e+04 7.219e-10
 99.34395     42.0 1.192e+04 5.864e-10
 99.38486     44.4 1.165e+04 4.630e-10
 99.42568     46.4 1.147e+04 4.246e-10
 99.45080     48.5 1.146e+04 4.272e-10
 99.47121     48.9 1.144e+04 4.210e-10
 99.49238     51.0 1.146e+04 4.339e-10
 99.51279     51.9 1.142e+04 4.447e-10
 99.54813     53.9 1.151e+04 4.850e-10
 99.58238     55.5 1.159e+04 5.596e-10
 99.60278     55.9 1.158e+04 5.651e-10
 99.62976     57.5 1.159e+04 6.784e-10
 99.67058     59.3 1.166e+04 8.292e-10
 99.71139     61.1 1.178e+04 9.969e-10
 99.73436     62.7 1.188e+04 1.063e-09
 99.75477     63.3 1.189e+04 1.111e-09
 99.79303     65.0 1.197e+04 1.152e-09
 99.83384     66.5 1.202e+04 1.132e-09
 99.86594     67.9 1.214e+04 1.106e-09
 99.88634     68.3 1.228e+04 1.357e-09
 99.91547     69.5 1.247e+04 1.440e-09
 99.95012     70.5 1.265e+04 1.593e-09
 99.97053     71.0 1.223e+04 1.335e-09
 99.99711     72.3 1.233e+04 1.428e-09
