# Columns:
#   distance along LOS (in CHIMPs)
#   peculiar velocity  (in km/s)
#   temperature (K)
#   HI number density
# pos=(11.7154,255.947,159.801), angles=(1.41644,4.69798)
  0.00575    -20.7 1.165e+04 1.160e-09
  0.02139    -20.5 1.160e+04 1.114e-09
  0.04116    -20.3 1.139e+04 1.043e-09
  0.06092    -20.2 1.141e+04 1.014e-09
  0.07332    -20.2 1.137e+04 9.659e-10
  0.08320    -20.2 1.095e+04 7.191e-10
  0.10046    -19.8 1.094e+04 7.252e-10
  0.12023    -19.4 1.095e+04 7.368e-10
  0.14000    -18.7 1.093e+04 7.438e-10
  0.15977    -18.0 1.092e+04 7.379e-10
  0.17953    -17.4 1.091e+04 7.215e-10
  0.19614    -16.7 1.086e+04 6.895e-10
  0.20602    -16.5 1.075e+04 6.425e-10
  0.21907    -15.8 1.068e+04 6.195e-10
  0.23884    -15.0 1.059e+04 5.847e-10
  0.25861    -14.1 1.050e+04 5.492e-10
  0.28836    -13.3 1.050e+04 5.397e-10
  0.32799    -11.2 1.044e+04 5.222e-10
  0.35755     -9.1 1.044e+04 5.383e-10
  0.37722     -8.1 1.048e+04 5.443e-10
  0.39699     -7.0 1.052e+04 5.627e-10
  0.41675     -5.9 1.048e+04 5.664e-10
  0.43652     -4.6 1.043e+04 5.676e-10
  0.45167     -3.8 1.061e+04 6.094e-10
  0.46156     -4.1 1.069e+04 6.766e-10
  0.47606     -7.0 1.247e+04 9.759e-10
  0.49583    -12.5 1.643e+04 2.517e-09
  0.51560    -16.7 1.875e+04 7.318e-09
  0.53536    -19.2 2.018e+04 1.678e-08
  0.55014    -20.7 2.075e+04 2.465e-08
  0.55998    -21.5 2.083e+04 2.505e-08
  0.56986    -22.4 2.053e+04 2.225e-08
  0.57934    -23.2 2.030e+04 1.832e-08
  0.58433    -22.6 1.993e+04 1.660e-08
  0.58968    -25.8 1.825e+04 1.040e-08
  0.59951    -26.5 1.761e+04 7.968e-09
  0.60940    -32.1 1.481e+04 4.177e-09
  0.61928    -34.4 1.391e+04 3.176e-09
  0.62917    -37.1 1.317e+04 2.389e-09
  0.63905    -37.6 1.331e+04 2.337e-09
  0.65392    -39.7 1.403e+04 2.028e-09
  0.67374    -41.7 1.417e+04 1.638e-09
  0.69351    -42.7 1.436e+04 1.502e-09
  0.70720    -43.2 1.468e+04 1.517e-09
  0.71709    -42.0 1.113e+04 7.086e-10
  0.73305    -41.9 1.135e+04 7.087e-10
  0.75281    -41.8 1.133e+04 7.326e-10
  0.77258    -42.0 1.180e+04 8.779e-10
  0.79235    -42.3 1.282e+04 1.198e-09
  0.81212    -42.6 1.392e+04 1.835e-09
  0.83003    -42.8 1.510e+04 3.010e-09
  0.83991    -43.2 1.408e+04 2.381e-09
  0.85166    -43.2 1.573e+04 4.076e-09
  0.87142    -42.3 1.704e+04 6.442e-09
  0.88620    -40.8 1.766e+04 7.862e-09
  0.89604    -40.9 1.796e+04 8.528e-09
  0.90123    -40.8 1.892e+04 1.094e-08
  0.90617    -40.8 1.803e+04 8.829e-09
  0.91581    -41.2 1.872e+04 1.023e-08
  0.92569    -41.3 1.948e+04 1.199e-08
  0.93557    -41.4 2.020e+04 1.367e-08
  0.94546    -41.4 2.093e+04 1.527e-08
  0.95534    -41.4 2.142e+04 1.603e-08
  0.96264    -41.5 2.169e+04 1.557e-08
  0.97257    -43.4 1.990e+04 9.344e-09
  0.98596    -43.3 1.900e+04 7.365e-09
  0.99585    -41.9 1.787e+04 5.936e-09
  1.00980    -42.2 1.713e+04 4.401e-09
  1.02957    -42.1 1.623e+04 3.214e-09
  1.04934    -42.1 1.512e+04 2.126e-09
  1.06911    -42.1 1.406e+04 1.393e-09
  1.08556    -42.1 1.303e+04 9.291e-10
  1.09544    -44.0 1.072e+04 4.928e-10
  1.10864    -43.5 1.042e+04 4.244e-10
  1.12841    -42.7 1.019e+04 3.815e-10
  1.14818    -41.7 1.003e+04 3.520e-10
  1.16795    -40.4 9.954e+03 3.330e-10
  1.18772    -39.0 9.980e+03 3.213e-10
  1.20749    -37.7 1.007e+04 3.159e-10
  1.21836    -36.4 1.025e+04 3.058e-10
  1.23823    -36.6 9.769e+03 2.593e-10
  1.27687    -33.7 9.612e+03 2.142e-10
  1.31641    -30.9 9.530e+03 1.791e-10
  1.35594    -28.1 9.489e+03 1.559e-10
  1.39548    -25.4 9.501e+03 1.514e-10
  1.43502    -23.0 9.658e+03 1.579e-10
  1.46411    -21.0 9.872e+03 1.944e-10
  1.48388    -22.0 1.005e+04 2.315e-10
  1.51409    -20.0 1.037e+04 2.934e-10
  1.54364    -17.4 1.052e+04 3.412e-10
  1.56332    -17.3 1.076e+04 4.010e-10
  1.58308    -16.3 1.120e+04 5.442e-10
  1.59662    -15.9 1.147e+04 6.425e-10
  1.60651    -17.4 1.198e+04 7.601e-10
  1.62262    -16.6 1.252e+04 9.722e-10
  1.64239    -16.5 1.279e+04 1.158e-09
  1.66216    -16.0 1.316e+04 1.408e-09
  1.68193    -15.8 1.335e+04 1.600e-09
  1.70169    -15.5 1.351e+04 1.824e-09
  1.71944    -15.3 1.360e+04 1.998e-09
  1.72933    -15.8 1.291e+04 1.624e-09
  1.74123    -15.0 1.284e+04 1.607e-09
  1.76100    -14.2 1.281e+04 1.559e-09
  1.78077    -13.3 1.283e+04 1.478e-09
  1.80054    -12.4 1.287e+04 1.341e-09
  1.82030    -11.6 1.290e+04 1.152e-09
  1.84007    -11.0 1.294e+04 9.542e-10
  1.85215    -10.7 1.284e+04 7.662e-10
  1.86204    -12.9 1.217e+04 2.549e-10
  1.87961    -12.6 1.162e+04 2.533e-10
  1.89938    -12.1 1.123e+04 2.878e-10
  1.91915    -11.4 1.119e+04 3.455e-10
  1.93891    -10.8 1.159e+04 4.348e-10
  1.95868    -10.3 1.229e+04 5.936e-10
  1.97498    -10.3 1.324e+04 9.327e-10
  1.98486    -10.4 1.134e+04 6.198e-10
  1.99822     -9.8 1.246e+04 9.337e-10
  2.01799     -9.3 1.435e+04 1.440e-09
  2.03776     -8.5 1.647e+04 2.097e-09
  2.05752     -7.7 1.784e+04 2.703e-09
  2.07729     -7.3 1.812e+04 3.047e-09
  2.09706     -7.1 1.768e+04 3.322e-09
  2.10768     -6.6 1.676e+04 3.291e-09
  2.11757     -7.3 1.352e+04 1.623e-09
  2.13660     -6.4 1.372e+04 1.709e-09
  2.15636     -5.5 1.394e+04 1.787e-09
  2.17613     -4.6 1.415e+04 1.848e-09
  2.19590     -3.7 1.452e+04 1.956e-09
  2.21567     -3.0 1.507e+04 2.137e-09
  2.23051     -2.4 1.587e+04 2.432e-09
  2.24039     -2.2 1.389e+04 1.720e-09
  2.25521     -1.5 1.431e+04 1.932e-09
  2.27497     -0.7 1.504e+04 2.254e-09
  2.29474     -0.3 1.650e+04 2.801e-09
  2.31451     -0.5 1.868e+04 3.830e-09
  2.33428     -1.3 2.108e+04 5.979e-09
  2.35333     -2.6 2.230e+04 1.036e-08
  2.36284     -0.1 2.115e+04 4.565e-09
  2.36355      2.3 2.086e+04 3.943e-09
  2.37382     -0.3 2.447e+04 7.747e-09
  2.38859     -3.4 2.309e+04 1.855e-08
  2.39843     -3.0 2.236e+04 2.820e-08
  2.40831     -2.5 2.149e+04 3.946e-08
  2.41820     -2.0 2.092e+04 4.803e-08
  2.42453     -1.3 2.066e+04 5.483e-08
  2.42947     -2.1 2.029e+04 5.414e-08
  2.43797     -1.0 2.021e+04 6.141e-08
  2.44785     -0.2 2.006e+04 6.134e-08
  2.45773      1.0 2.025e+04 5.569e-08
  2.46762      2.0 2.087e+04 4.300e-08
  2.47750      2.7 2.168e+04 3.185e-08
  2.48594      3.1 2.322e+04 2.110e-08
  2.49088      3.4 2.061e+04 3.108e-08
  2.49727      4.0 2.206e+04 2.115e-08
  2.50715      3.2 2.468e+04 1.173e-08
  2.51704      2.7 2.573e+04 6.579e-09
  2.53191      2.3 2.487e+04 5.268e-09
  2.55173     -2.7 1.895e+04 1.700e-09
  2.57150     -7.0 1.246e+04 9.721e-10
  2.59127     -7.2 1.197e+04 8.284e-10
  2.60886     -7.8 1.200e+04 7.688e-10
  2.61875     -8.2 1.216e+04 7.502e-10
  2.63080     -9.3 1.246e+04 7.231e-10
  2.65057    -10.9 1.263e+04 7.305e-10
  2.67034    -12.1 1.267e+04 7.437e-10
  2.69011    -12.7 1.267e+04 8.063e-10
  2.70988    -13.3 1.299e+04 9.300e-10
  2.72965    -14.0 1.299e+04 1.056e-09
  2.74157    -15.1 1.371e+04 1.342e-09
  2.75145    -17.6 1.590e+04 2.502e-09
  2.76918    -17.9 1.544e+04 2.743e-09
  2.78895    -17.6 1.531e+04 2.897e-09
  2.80872    -17.4 1.512e+04 2.837e-09
  2.82849    -18.2 1.491e+04 2.460e-09
  2.84826    -19.8 1.467e+04 2.261e-09
  2.86439    -21.1 1.439e+04 2.229e-09
  2.87428    -20.9 1.594e+04 3.052e-09
  2.88779    -21.6 1.588e+04 2.960e-09
  2.90756    -22.4 1.620e+04 3.049e-09
  2.92733    -26.4 1.851e+04 3.794e-09
  2.94211    -38.0 2.377e+04 7.277e-09
  2.95194    -42.3 2.667e+04 1.062e-08
  2.96183    -45.9 3.237e+04 2.016e-08
  2.97171    -54.0 3.296e+04 4.785e-08
  2.98159    -60.5 2.933e+04 1.049e-07
  2.99148    -64.7 2.671e+04 1.509e-07
  2.99700    -66.8 2.466e+04 1.629e-07
  3.00195    -70.8 2.282e+04 2.269e-07
  3.01125    -71.9 2.362e+04 8.875e-08
  3.02113    -73.8 2.365e+04 3.809e-08
  3.03101    -76.0 2.202e+04 1.953e-08
  3.04090    -78.0 1.983e+04 1.167e-08
  3.04731    -79.1 1.847e+04 7.723e-09
  3.05225    -79.9 1.851e+04 6.811e-09
  3.05842    -80.6 1.798e+04 4.800e-09
  3.06336    -82.6 1.866e+04 4.230e-09
  3.07055    -82.2 1.797e+04 3.464e-09
  3.08543    -81.7 1.666e+04 2.750e-09
  3.10524    -82.1 1.417e+04 1.775e-09
  3.11993    -81.5 1.367e+04 1.526e-09
  3.12981    -86.6 1.900e+04 2.113e-09
  3.14478    -85.4 1.972e+04 2.642e-09
  3.16455    -84.1 2.037e+04 3.617e-09
  3.18432    -82.8 2.094e+04 5.079e-09
  3.20409    -81.6 2.148e+04 7.148e-09
  3.22385    -80.9 2.210e+04 1.081e-08
  3.23863    -81.5 2.224e+04 2.283e-08
  3.24759    -81.0 2.221e+04 2.912e-08
  3.25254    -81.6 2.202e+04 4.363e-08
  3.25835    -81.1 2.217e+04 5.308e-08
  3.26823    -80.8 2.228e+04 6.412e-08
  3.27812    -80.6 2.227e+04 7.692e-08
  3.28800    -80.0 2.233e+04 9.322e-08
  3.29789    -79.2 2.254e+04 1.060e-07
  3.30777    -78.8 2.269e+04 1.069e-07
  3.31395    -78.2 2.289e+04 9.506e-08
  3.31889    -78.2 2.321e+04 4.530e-08
  3.32754    -77.8 2.363e+04 3.340e-08
  3.33742    -77.6 2.402e+04 2.359e-08
  3.34731    -77.8 2.414e+04 1.624e-08
  3.35719    -78.6 2.362e+04 1.097e-08
  3.36708    -79.9 2.245e+04 7.844e-09
  3.37536    -81.6 2.063e+04 5.475e-09
  3.38529    -84.5 1.686e+04 3.302e-09
  3.40177    -86.3 1.438e+04 2.084e-09
  3.42154    -87.2 1.286e+04 1.526e-09
  3.44131    -87.4 1.194e+04 1.185e-09
  3.46107    -87.3 1.136e+04 9.907e-10
  3.48084    -86.7 1.123e+04 9.102e-10
  3.49828    -85.9 1.120e+04 8.798e-10
  3.50816    -85.9 1.183e+04 1.169e-09
  3.52038    -85.2 1.170e+04 1.120e-09
  3.54015    -84.4 1.156e+04 1.067e-09
  3.55991    -83.5 1.140e+04 1.006e-09
  3.57968    -82.6 1.122e+04 9.346e-10
  3.59945    -81.6 1.103e+04 8.503e-10
  3.61922    -80.5 1.079e+04 7.550e-10
  3.63099    -79.5 1.053e+04 6.572e-10
  3.64087    -79.9 1.073e+04 7.466e-10
  3.65876    -78.9 1.045e+04 6.308e-10
  3.67852    -77.9 1.020e+04 5.376e-10
  3.69829    -77.2 9.972e+03 4.677e-10
  3.72804    -76.6 9.679e+03 4.103e-10
  3.75401    -74.6 9.239e+03 3.293e-10
  3.77378    -76.1 9.612e+03 4.032e-10
  3.80721    -74.7 9.617e+03 4.123e-10
  3.84675    -74.6 1.078e+04 6.115e-10
  3.88629    -74.8 1.173e+04 8.911e-10
  3.92582    -75.3 1.239e+04 1.255e-09
  3.96536    -76.3 1.278e+04 1.585e-09
  3.99492    -78.2 1.293e+04 1.677e-09
  4.00934    -78.5 1.283e+04 1.635e-09
  4.01923    -79.4 1.210e+04 1.287e-09
  4.03435    -80.3 1.157e+04 1.021e-09
  4.05412    -81.1 1.114e+04 8.077e-10
  4.07389    -82.1 1.071e+04 6.391e-10
  4.09366    -83.1 1.038e+04 5.211e-10
  4.11343    -84.1 1.017e+04 4.510e-10
  4.13217    -84.9 1.008e+04 4.210e-10
  4.14205    -84.9 9.880e+03 3.689e-10
  4.15296    -85.3 9.884e+03 3.680e-10
  4.17273    -85.6 9.936e+03 3.788e-10
  4.19250    -85.6 9.997e+03 3.918e-10
  4.21227    -85.5 1.004e+04 3.981e-10
  4.23204    -85.1 1.005e+04 3.985e-10
  4.25181    -84.6 1.005e+04 3.887e-10
  4.26487    -83.8 1.006e+04 3.732e-10
  4.28474    -82.7 1.004e+04 3.457e-10
  4.32119    -81.6 1.012e+04 3.385e-10
  4.36073    -80.6 1.017e+04 3.338e-10
  4.40026    -79.3 1.027e+04 3.349e-10
  4.42982    -78.0 1.034e+04 3.321e-10
  4.44949    -77.8 1.040e+04 3.412e-10
  4.46926    -77.0 1.056e+04 3.662e-10
  4.48903    -76.3 1.060e+04 3.848e-10
  4.50879    -75.6 1.068e+04 4.076e-10
  4.52041    -75.3 1.083e+04 4.393e-10
  4.53029    -74.9 1.077e+04 4.292e-10
  4.54833    -75.3 1.111e+04 5.261e-10
  4.56810    -78.2 1.290e+04 9.200e-10
  4.58787    -81.8 1.513e+04 2.137e-09
  4.60764    -83.9 1.655e+04 4.858e-09
  4.62740    -84.8 1.749e+04 8.943e-09
  4.64323    -85.3 1.840e+04 1.304e-08
  4.65311    -84.9 1.792e+04 9.765e-09
  4.66694    -87.5 1.885e+04 1.261e-08
  4.68671    -92.9 2.026e+04 1.383e-08
  4.70149    -98.5 2.128e+04 1.347e-08
  4.70949   -103.5 2.437e+04 1.423e-08
  4.71443   -100.1 2.182e+04 1.315e-08
  4.72121   -106.8 2.473e+04 1.345e-08
  4.73109   -112.9 2.735e+04 1.823e-08
  4.74097   -119.7 2.641e+04 2.503e-08
  4.75086   -124.3 2.530e+04 2.874e-08
  4.76074   -127.4 2.264e+04 3.094e-08
  4.77063   -128.9 2.065e+04 2.983e-08
  4.77584   -129.4 1.960e+04 2.590e-08
  4.78078   -128.6 2.010e+04 1.990e-08
  4.79039   -129.2 1.923e+04 1.734e-08
  4.80028   -129.7 1.883e+04 1.424e-08
  4.81016   -130.4 1.856e+04 1.089e-08
  4.82005   -131.7 1.810e+04 8.052e-09
  4.82993   -133.1 1.725e+04 5.954e-09
  4.84481   -134.0 1.626e+04 4.610e-09
  4.86462   -134.3 1.535e+04 3.535e-09
  4.88439   -134.6 1.391e+04 2.362e-09
  4.89876   -134.6 1.268e+04 1.644e-09
  4.90865   -133.3 1.235e+04 1.313e-09
  4.92393   -133.2 1.164e+04 9.500e-10
  4.94370   -132.7 1.114e+04 7.238e-10
  4.96346   -131.9 1.074e+04 5.714e-10
  4.98323   -131.4 1.050e+04 4.807e-10
  5.00300   -131.1 1.047e+04 4.586e-10
  5.02168   -131.0 1.055e+04 4.929e-10
  5.04155   -130.1 9.646e+03 3.127e-10
  5.07239   -127.9 9.567e+03 3.161e-10
  5.09917   -126.3 9.630e+03 3.568e-10
  5.11894   -125.0 9.643e+03 3.488e-10
  5.15146   -123.7 9.778e+03 4.068e-10
  5.19100   -122.6 9.913e+03 4.640e-10
  5.23053   -121.8 9.985e+03 4.921e-10
  5.26743   -121.3 1.000e+04 4.973e-10
  5.28720   -119.6 9.575e+03 3.772e-10
  5.30961   -119.2 9.560e+03 3.696e-10
  5.34914   -118.7 9.501e+03 3.446e-10
  5.38868   -118.2 9.484e+03 3.324e-10
  5.42822   -117.6 9.516e+03 3.324e-10
  5.46775   -116.9 9.640e+03 3.470e-10
  5.50729   -116.0 9.682e+03 3.556e-10
  5.53284   -114.9 9.669e+03 3.606e-10
  5.55261   -113.4 9.078e+03 2.492e-10
  5.58636   -112.1 9.091e+03 2.522e-10
  5.62590   -110.7 9.102e+03 2.557e-10
  5.66544   -109.3 9.299e+03 2.676e-10
  5.70497   -108.2 9.654e+03 3.170e-10
  5.74451   -107.0 1.012e+04 4.351e-10
  5.77406   -105.9 1.043e+04 5.445e-10
  5.78818   -105.5 1.076e+04 7.147e-10
  5.79816   -104.7 1.036e+04 4.965e-10
  5.81360   -104.3 1.086e+04 7.634e-10
  5.83327   -103.6 1.119e+04 9.889e-10
  5.85304   -102.6 1.150e+04 1.189e-09
  5.87281   -101.8 1.175e+04 1.322e-09
  5.89258   -101.0 1.190e+04 1.397e-09
  5.91100   -100.2 1.195e+04 1.418e-09
  5.92089    -99.7 1.201e+04 1.367e-09
  5.93211    -98.9 1.204e+04 1.385e-09
  5.95188    -98.0 1.203e+04 1.368e-09
  5.97165    -97.0 1.195e+04 1.289e-09
  5.99142    -96.0 1.181e+04 1.180e-09
  6.01119    -95.0 1.162e+04 1.070e-09
  6.03095    -93.8 1.146e+04 9.755e-10
  6.04371    -92.8 1.134e+04 8.840e-10
  6.05359    -92.3 1.125e+04 9.427e-10
  6.07049    -91.3 1.117e+04 9.056e-10
  6.09026    -90.2 1.108e+04 8.851e-10
  6.11003    -89.0 1.105e+04 8.803e-10
  6.12980    -87.9 1.104e+04 8.814e-10
  6.14956    -86.5 1.112e+04 8.983e-10
  6.17931    -84.9 1.126e+04 9.139e-10
  6.21895    -82.3 1.139e+04 9.015e-10
  6.25848    -80.0 1.144e+04 8.006e-10
  6.28804    -78.2 1.176e+04 8.181e-10
  6.29924    -77.3 1.170e+04 6.830e-10
  6.30913    -76.2 1.184e+04 1.195e-09
  6.32748    -75.3 1.175e+04 1.097e-09
  6.34725    -74.5 1.164e+04 1.000e-09
  6.36702    -73.7 1.156e+04 9.159e-10
  6.38678    -72.8 1.159e+04 8.753e-10
  6.41653    -71.6 1.186e+04 9.009e-10
  6.45617    -70.6 1.156e+04 7.403e-10
  6.49570    -71.0 1.137e+04 5.907e-10
  6.53520    -74.1 1.144e+04 5.614e-10
  6.56476    -77.5 1.214e+04 8.590e-10
  6.58447    -79.8 1.236e+04 1.224e-09
  6.60423    -81.0 1.248e+04 1.680e-09
  6.62400    -81.5 1.255e+04 1.998e-09
  6.64377    -81.9 1.256e+04 2.077e-09
  6.66354    -82.1 1.253e+04 2.019e-09
  6.67760    -82.4 1.223e+04 1.590e-09
  6.68748    -83.0 1.234e+04 1.742e-09
  6.70308    -83.9 1.172e+04 1.275e-09
  6.72284    -84.8 1.113e+04 9.639e-10
  6.74261    -85.4 1.068e+04 8.056e-10
  6.76238    -85.6 1.050e+04 7.605e-10
  6.78215    -85.4 1.045e+04 7.542e-10
  6.80042    -85.0 1.046e+04 7.769e-10
  6.82029    -85.4 1.041e+04 6.673e-10
  6.85153    -83.9 1.053e+04 7.506e-10
  6.89107    -82.8 1.072e+04 8.461e-10
  6.93061    -82.0 1.090e+04 9.356e-10
  6.97014    -81.1 1.108e+04 1.038e-09
  7.00968    -80.2 1.122e+04 1.115e-09
  7.04626    -79.4 1.127e+04 1.131e-09
  7.06603    -78.7 1.163e+04 1.241e-09
  7.08875    -78.0 1.160e+04 1.226e-09
  7.12829    -77.0 1.114e+04 9.263e-10
  7.16783    -76.1 1.043e+04 5.876e-10
  7.20736    -75.4 9.921e+03 4.194e-10
  7.24690    -74.3 9.767e+03 3.841e-10
  7.28644    -72.7 9.761e+03 3.851e-10
  7.31168    -70.9 9.832e+03 4.089e-10
  7.33145    -69.8 9.709e+03 3.521e-10
  7.36551    -68.2 9.954e+03 4.034e-10
  7.40505    -66.7 1.028e+04 4.942e-10
  7.44458    -65.4 1.067e+04 6.113e-10
  7.48412    -64.2 1.113e+04 7.846e-10
  7.52366    -63.3 1.158e+04 1.019e-09
  7.55733    -62.5 1.194e+04 1.256e-09
  7.57709    -61.1 1.189e+04 1.214e-09
  7.60273    -60.6 1.226e+04 1.484e-09
  7.64227    -60.2 1.246e+04 1.649e-09
  7.68180    -60.0 1.247e+04 1.655e-09
  7.72134    -59.7 1.226e+04 1.416e-09
  7.75089    -58.8 1.158e+04 9.142e-10
  7.77057    -58.5 1.139e+04 8.334e-10
  7.79033    -58.0 1.085e+04 5.908e-10
  7.81010    -57.9 1.056e+04 4.360e-10
  7.82255    -57.8 1.035e+04 3.417e-10
  7.83243    -57.4 1.048e+04 3.726e-10
  7.84427    -57.5 1.044e+04 3.292e-10
  7.85416    -56.7 1.016e+04 2.613e-10
  7.86941    -56.7 1.013e+04 2.384e-10
  7.88917    -56.8 1.014e+04 2.368e-10
  7.90894    -57.1 1.031e+04 2.503e-10
  7.92871    -57.5 1.046e+04 3.109e-10
  7.94537    -57.8 1.057e+04 4.102e-10
  7.95525    -58.4 1.102e+04 4.942e-10
  7.96825    -58.0 1.111e+04 6.436e-10
  7.98802    -57.2 1.128e+04 8.016e-10
  8.00778    -56.4 1.144e+04 9.244e-10
  8.02755    -55.5 1.152e+04 9.752e-10
  8.04732    -54.5 1.150e+04 9.449e-10
  8.06709    -53.8 1.129e+04 8.479e-10
  8.07808    -53.2 1.108e+04 7.662e-10
  8.08796    -53.2 1.127e+04 8.259e-10
  8.10663    -52.6 1.095e+04 7.044e-10
  8.12639    -51.9 1.064e+04 6.081e-10
  8.14616    -51.1 1.043e+04 5.472e-10
  8.16593    -50.2 1.029e+04 5.123e-10
  8.18570    -49.4 1.020e+04 4.939e-10
  8.20090    -48.3 1.017e+04 4.900e-10
  8.21079    -48.3 1.005e+04 4.467e-10
  8.22524    -47.2 1.005e+04 4.504e-10
  8.24500    -46.1 1.009e+04 4.761e-10
  8.26477    -45.0 1.016e+04 5.194e-10
  8.28454    -43.8 1.025e+04 5.661e-10
  8.30431    -42.5 1.038e+04 6.207e-10
  8.32372    -41.2 1.046e+04 6.605e-10
  8.33371    -41.9 1.019e+04 5.348e-10
  8.35393    -39.2 1.041e+04 6.481e-10
  8.39346    -36.4 1.058e+04 7.340e-10
  8.43300    -33.6 1.070e+04 7.878e-10
  8.47254    -31.0 1.074e+04 8.084e-10
  8.51207    -28.5 1.070e+04 8.071e-10
  8.55161    -25.9 1.054e+04 7.657e-10
  8.57945    -23.4 1.030e+04 6.713e-10
  8.59922    -22.9 1.001e+04 5.175e-10
  8.63068    -20.7 9.755e+03 4.539e-10
  8.67022    -18.4 9.533e+03 4.168e-10
  8.70976    -15.8 9.395e+03 3.962e-10
  8.74929    -13.0 9.268e+03 3.718e-10
  8.78883    -10.1 9.105e+03 3.165e-10
  8.82510     -7.6 8.842e+03 2.405e-10
  8.84487     -7.0 9.164e+03 3.359e-10
  8.86790     -4.8 9.018e+03 2.825e-10
  8.90744     -2.6 8.877e+03 2.514e-10
  8.94697     -0.4 8.712e+03 2.280e-10
  8.98651      2.1 8.546e+03 2.111e-10
  9.02605      4.7 8.328e+03 1.871e-10
  9.06558      7.3 8.162e+03 1.488e-10
  9.09051      9.1 8.017e+03 1.155e-10
  9.11028     10.3 8.196e+03 1.420e-10
  9.14466     12.3 8.071e+03 1.302e-10
  9.18419     14.2 8.136e+03 1.403e-10
  9.22373     16.5 8.270e+03 1.695e-10
  9.26327     18.9 8.496e+03 2.069e-10
  9.30280     21.2 8.749e+03 2.417e-10
  9.33616     22.9 9.077e+03 2.966e-10
  9.35593     24.2 9.875e+03 5.425e-10
  9.38188     25.9 1.032e+04 6.775e-10
  9.42141     27.4 1.044e+04 7.246e-10
  9.46095     28.9 1.033e+04 6.824e-10
  9.50049     30.5 9.971e+03 5.734e-10
  9.54002     32.1 9.519e+03 4.314e-10
  9.57956     33.3 9.044e+03 3.123e-10
  9.60158     34.2 8.828e+03 2.641e-10
  9.62135     34.3 8.774e+03 2.636e-10
  9.65863     35.3 8.796e+03 2.727e-10
  9.69817     35.6 9.200e+03 3.352e-10
  9.72430     33.2 1.048e+04 5.084e-10
  9.73409     34.4 9.460e+03 4.380e-10
  9.74740     34.2 1.006e+04 5.513e-10
  9.76716     35.7 1.079e+04 6.757e-10
  9.78693     35.2 1.281e+04 9.578e-10
  9.80670     33.2 1.613e+04 1.693e-09
  9.82647     29.9 1.841e+04 3.763e-09
  9.84624     28.1 1.853e+04 7.384e-09
  9.85691     28.1 1.827e+04 1.048e-08
  9.86680     28.5 1.808e+04 7.580e-09
  9.88577     29.2 1.776e+04 9.835e-09
  9.90554     29.9 1.764e+04 1.021e-08
  9.92531     30.4 1.739e+04 9.301e-09
  9.94508     31.0 1.686e+04 7.905e-09
  9.96485     31.6 1.636e+04 5.898e-09
  9.97974     32.0 1.558e+04 3.848e-09
  9.98962     32.0 1.558e+04 5.145e-09
 10.00438     32.4 1.505e+04 3.800e-09
 10.02415     32.5 1.443e+04 2.798e-09
 10.04392     32.7 1.366e+04 2.057e-09
 10.06369     33.1 1.284e+04 1.562e-09
 10.08346     33.8 1.209e+04 1.274e-09
 10.10256     34.8 1.163e+04 1.133e-09
 10.11244     34.8 1.255e+04 1.448e-09
 10.12299     34.7 1.276e+04 1.508e-09
 10.14276     33.0 1.525e+04 1.852e-09
 10.16253     30.0 1.864e+04 3.087e-09
 10.18230     28.2 2.062e+04 5.594e-09
 10.20207     27.6 2.143e+04 9.499e-09
 10.22184     27.5 2.170e+04 1.501e-08
 10.23522     26.8 2.156e+04 2.368e-08
 10.24510     27.1 2.058e+04 1.864e-08
 10.26137     28.3 2.042e+04 1.539e-08
 10.27615     28.9 2.077e+04 1.371e-08
 10.28598     28.8 2.075e+04 1.206e-08
 10.30086     29.3 1.992e+04 7.355e-09
 10.32068     28.3 1.894e+04 4.463e-09
 10.34045     26.7 1.710e+04 2.847e-09
 10.35809     25.5 1.492e+04 2.161e-09
 10.36798     23.3 1.150e+04 9.403e-10
 10.37998     24.4 1.157e+04 1.059e-09
 10.39975     25.6 1.217e+04 1.284e-09
 10.41952     26.9 1.280e+04 1.587e-09
 10.43929     28.2 1.328e+04 1.927e-09
 10.45906     29.4 1.358e+04 2.273e-09
 10.47882     30.8 1.369e+04 2.520e-09
 10.49080     32.2 1.368e+04 2.631e-09
 10.50068     32.7 1.263e+04 1.456e-09
 10.51836     34.0 1.259e+04 1.438e-09
 10.53813     35.4 1.241e+04 1.366e-09
 10.55790     36.9 1.208e+04 1.202e-09
 10.57767     38.1 1.178e+04 1.014e-09
 10.58958     39.2 1.149e+04 8.461e-10
 10.59946     38.1 1.132e+04 7.365e-10
 10.61362     39.4 1.108e+04 6.216e-10
 10.62351     39.2 1.078e+04 4.456e-10
 10.64695     41.4 1.060e+04 3.780e-10
 10.68659     44.4 1.046e+04 3.514e-10
 10.72612     47.6 1.027e+04 3.260e-10
 10.76566     50.8 1.016e+04 3.061e-10
 10.80520     54.2 1.017e+04 2.957e-10
 10.84473     57.7 1.026e+04 2.977e-10
 10.86935     61.1 1.040e+04 3.070e-10
 10.88912     61.9 1.063e+04 4.265e-10
 10.91382     63.7 1.056e+04 4.189e-10
 10.93349     65.1 1.056e+04 4.473e-10
 10.95326     66.3 1.060e+04 5.002e-10
 10.97303     67.5 1.075e+04 5.641e-10
 10.99198     68.6 1.100e+04 6.509e-10
 11.00186     68.7 1.132e+04 7.620e-10
 11.01257     69.5 1.174e+04 9.229e-10
 11.03234     70.1 1.220e+04 1.147e-09
 11.05210     70.7 1.263e+04 1.434e-09
 11.07187     71.4 1.309e+04 1.784e-09
 11.09164     71.9 1.356e+04 2.165e-09
 11.11141     72.3 1.399e+04 2.477e-09
 11.12469     72.2 1.445e+04 2.663e-09
 11.13457     72.6 1.434e+04 2.776e-09
 11.15095     72.5 1.461e+04 2.904e-09
 11.17071     72.1 1.496e+04 3.088e-09
 11.19048     71.3 1.567e+04 3.329e-09
 11.21025     70.5 1.648e+04 3.691e-09
 11.23002     70.3 1.698e+04 4.126e-09
 11.24751     70.7 1.705e+04 4.575e-09
 11.25739     72.5 1.634e+04 4.416e-09
 11.26956     73.1 1.670e+04 4.711e-09
 11.28932     74.1 1.687e+04 4.957e-09
 11.30909     75.3 1.696e+04 5.125e-09
 11.32886     76.6 1.706e+04 5.194e-09
 11.34863     77.9 1.715e+04 5.240e-09
 11.36840     79.2 1.726e+04 5.313e-09
 11.38022     80.4 1.741e+04 5.471e-09
 11.39010     82.3 1.784e+04 6.242e-09
 11.40793     83.4 1.823e+04 6.961e-09
 11.42770     84.5 1.872e+04 8.110e-09
 11.44747     85.9 1.918e+04 9.858e-09
 11.46724     87.5 1.959e+04 1.219e-08
 11.48701     89.4 1.991e+04 1.390e-08
 11.50304     91.2 2.040e+04 1.458e-08
 11.51293     92.8 2.117e+04 2.003e-08
 11.52155     92.9 2.151e+04 2.200e-08
 11.53139     93.3 2.170e+04 2.500e-08
 11.54127     94.1 2.192e+04 2.810e-08
 11.55116     95.0 2.218e+04 3.063e-08
 11.56104     95.8 2.261e+04 3.143e-08
 11.56930     96.3 2.275e+04 3.071e-08
 11.57424     97.2 2.255e+04 6.552e-08
 11.58081     97.5 2.260e+04 6.290e-08
 11.59069     97.8 2.261e+04 5.566e-08
 11.60058     98.2 2.265e+04 4.342e-08
 11.61046     98.6 2.281e+04 3.214e-08
 11.62035     99.0 2.295e+04 2.220e-08
 11.63023     99.3 2.284e+04 1.573e-08
 11.63570    100.1 2.187e+04 8.197e-09
 11.64064    100.7 2.250e+04 1.733e-08
 11.65000    100.8 2.211e+04 1.307e-08
 11.66487    102.4 2.139e+04 9.884e-09
 11.68469    103.5 2.026e+04 5.757e-09
 11.70446    104.7 1.892e+04 3.820e-09
 11.72423    106.3 1.764e+04 2.810e-09
 11.74400    108.5 1.655e+04 2.235e-09
 11.75857    110.9 1.568e+04 1.902e-09
 11.76846    112.4 1.812e+04 3.869e-09
 11.78353    114.9 1.758e+04 3.230e-09
 11.80330    117.5 1.700e+04 2.732e-09
 11.82307    120.3 1.633e+04 2.351e-09
 11.84284    123.2 1.570e+04 2.067e-09
 11.86261    126.1 1.516e+04 1.852e-09
 11.88140    129.0 1.478e+04 1.690e-09
 11.89128    130.9 1.722e+04 2.710e-09
 11.90214    134.0 1.665e+04 2.301e-09
 11.92191    137.2 1.608e+04 2.011e-09
 11.94168    140.4 1.564e+04 1.835e-09
 11.95728    143.7 1.537e+04 1.744e-09
 11.96717    142.2 1.542e+04 1.708e-09
 11.98122    145.3 1.523e+04 1.648e-09
 12.00098    148.6 1.517e+04 1.621e-09
 12.01410    151.8 1.513e+04 1.628e-09
 12.02399    154.4 1.708e+04 1.873e-09
 12.04052    157.7 1.668e+04 1.793e-09
 12.06029    161.0 1.657e+04 1.798e-09
 12.08006    163.8 1.723e+04 1.864e-09
 12.09983    166.3 1.841e+04 1.964e-09
 12.11460    169.6 2.059e+04 2.182e-09
 12.12444    171.3 2.257e+04 2.413e-09
 12.13432    172.6 2.306e+04 2.602e-09
 12.14177    174.3 2.323e+04 2.992e-09
 12.14671    176.7 2.193e+04 2.204e-09
 12.15409    178.1 2.219e+04 2.400e-09
 12.16397    179.0 2.286e+04 2.634e-09
 12.17386    179.3 2.432e+04 3.027e-09
 12.18374    179.0 2.638e+04 3.866e-09
 12.19363    178.1 2.813e+04 5.395e-09
 12.20318    176.8 2.881e+04 7.666e-09
 12.20813    182.1 2.700e+04 3.758e-09
 12.21340    180.7 2.957e+04 5.144e-09
 12.22328    179.1 3.284e+04 6.734e-09
 12.23316    177.0 3.427e+04 9.734e-09
 12.24305    175.2 3.966e+04 1.086e-08
 12.25293    173.9 4.641e+04 1.023e-08
 12.26282    171.6 5.950e+04 7.489e-09
 12.26954    168.7 7.531e+04 5.556e-09
 12.27198    169.2 9.443e+04 7.266e-09
 12.27512    168.6 9.438e+04 8.598e-09
 12.28006    167.4 9.342e+04 1.059e-08
 12.28501    166.9 9.221e+04 1.257e-08
 12.28995    166.2 9.097e+04 1.452e-08
 12.29489    166.0 8.916e+04 1.682e-08
 12.29983    165.3 8.485e+04 2.126e-08
 12.30267    165.0 7.971e+04 2.806e-08
 12.30437    162.9 3.301e+04 2.331e-06
 12.30648    158.6 2.981e+04 3.196e-06
 12.30972    157.4 2.921e+04 3.299e-06
 12.31466    156.5 2.889e+04 3.227e-06
 12.31960    155.9 2.937e+04 2.852e-06
 12.32454    156.0 3.015e+04 2.482e-06
 12.32949    156.2 3.101e+04 2.266e-06
 12.33337    156.4 3.257e+04 1.875e-06
 12.33584    146.9 3.527e+04 1.590e-06
 12.33937    148.9 2.855e+04 3.704e-06
 12.34431    150.9 2.597e+04 5.196e-06
 12.34925    150.2 2.455e+04 5.327e-06
 12.35420    145.4 2.264e+04 5.464e-06
 12.35914    139.4 2.052e+04 8.002e-06
 12.36408    128.9 1.837e+04 1.733e-05
 12.36902     90.9 1.950e+04 2.718e-05
 12.37396     49.8 2.335e+04 9.788e-06
 12.37891     26.6 2.208e+04 4.333e-06
 12.38385     22.0 2.098e+04 3.867e-06
 12.38879     19.5 2.128e+04 4.541e-06
 12.39373     20.2 2.187e+04 5.979e-06
 12.39725     23.6 2.371e+04 6.826e-06
 12.39973     13.7 2.346e+04 4.019e-06
 12.40362     14.4 2.242e+04 5.872e-06
 12.40856     15.4 2.084e+04 6.582e-06
 12.41350     15.7 2.046e+04 4.923e-06
 12.41844     17.5 2.153e+04 2.764e-06
 12.42338     18.0 2.477e+04 1.750e-06
 12.42796      7.0 4.536e+04 3.704e-07
 12.43043      4.2 1.029e+05 1.289e-08
 12.43327    -12.8 7.681e+04 4.061e-08
 12.43821    -30.4 2.741e+04 1.849e-06
 12.44315    -26.9 1.808e+04 7.646e-06
 12.44810    -15.9 1.747e+04 1.114e-05
 12.45304     -1.7 1.764e+04 1.245e-05
 12.45798      8.3 2.023e+04 8.776e-06
 12.46114      5.3 2.396e+04 7.133e-06
 12.46361    -15.9 1.659e+04 7.593e-05
 12.46786    -23.0 1.819e+04 2.756e-05
 12.47281    -26.7 1.948e+04 8.740e-06
 12.47775    -25.6 2.196e+04 1.437e-06
 12.48269    -24.0 4.787e+04 3.248e-08
 12.48763    -13.6 1.882e+05 4.202e-10
 12.49184     -0.9 1.942e+05 3.313e-10
 12.49431     -2.7 1.884e+05 4.294e-10
 12.49752      3.1 1.440e+05 5.896e-10
 12.50246      0.3 1.203e+05 7.395e-10
 12.50740    -13.4 4.167e+04 4.454e-09
 12.51234    -18.5 3.307e+04 5.134e-09
 12.51728    -22.0 2.825e+04 8.509e-09
 12.52223    -22.5 2.887e+04 8.773e-09
 12.52502    -22.1 3.011e+04 1.357e-08
 12.52749    -23.4 2.697e+04 1.529e-08
 12.53211    -23.4 2.713e+04 1.558e-08
 12.53705    -23.2 2.807e+04 2.676e-08
 12.54199    -23.4 2.862e+04 2.834e-08
 12.54694    -25.0 2.941e+04 5.162e-08
 12.55188    -27.4 3.540e+04 6.039e-08
 12.55573    -31.1 4.951e+04 7.361e-08
 12.55820    -27.8 2.885e+04 9.083e-08
 12.56176    -28.8 3.065e+04 9.721e-08
 12.56670    -31.3 2.995e+04 1.322e-07
 12.57165    -32.7 2.975e+04 1.433e-07
 12.57659    -36.2 2.857e+04 1.472e-07
 12.58153    -38.3 2.822e+04 1.454e-07
 12.58643    -41.9 2.743e+04 1.267e-07
 12.58890    -42.2 2.718e+04 1.151e-07
 12.59142    -43.1 2.745e+04 1.149e-07
 12.59636    -46.8 2.635e+04 9.014e-08
 12.60130    -47.1 2.655e+04 8.681e-08
 12.60624    -49.5 2.558e+04 7.108e-08
 12.61118    -49.7 2.628e+04 6.809e-08
 12.61613    -51.5 2.711e+04 6.180e-08
 12.61961    -55.0 3.421e+04 7.704e-08
 12.62208    -50.1 2.611e+04 5.036e-08
 12.62601    -53.0 3.028e+04 5.314e-08
 12.63095    -59.4 3.839e+04 8.824e-08
 12.63589    -65.2 3.470e+04 3.522e-07
 12.64084    -68.6 2.550e+04 1.822e-06
 12.64578    -71.7 2.272e+04 3.114e-06
 12.64840    -74.7 2.330e+04 2.311e-06
 12.65047    -72.8 2.318e+04 2.206e-06
 12.65279    -68.7 2.372e+04 2.260e-06
 12.65566    -71.6 2.266e+04 2.622e-06
 12.66060    -74.2 2.455e+04 1.504e-06
 12.66555    -76.6 2.960e+04 5.975e-07
 12.67049    -78.5 4.017e+04 1.516e-07
 12.67543    -80.3 4.820e+04 5.394e-08
 12.68037    -80.9 5.136e+04 3.497e-08
 12.68349    -80.8 5.355e+04 2.724e-08
 12.68596    -80.2 4.102e+04 1.024e-07
 12.69026    -80.4 4.456e+04 6.708e-08
 12.69520    -80.0 4.916e+04 3.967e-08
 12.70014    -78.7 5.428e+04 2.422e-08
 12.70758    -77.2 5.987e+04 1.135e-08
 12.71425    -74.2 6.014e+04 6.100e-09
 12.71669    -73.0 4.589e+04 6.157e-08
 12.71991    -71.8 5.092e+04 3.560e-08
 12.72485    -70.2 5.553e+04 2.224e-08
 12.72979    -69.3 5.794e+04 1.315e-08
 12.73723    -70.8 5.380e+04 8.957e-09
 12.74714    -73.1 3.432e+04 5.089e-09
 12.75702    -74.2 2.252e+04 3.941e-09
 12.76691    -72.0 2.017e+04 3.903e-09
 12.77566    -69.9 2.005e+04 3.880e-09
 12.78060    -72.8 2.382e+04 6.678e-09
 12.78668    -71.0 2.349e+04 6.466e-09
 12.79656    -69.4 2.297e+04 6.256e-09
 12.80644    -68.0 2.255e+04 6.118e-09
 12.81633    -66.5 2.219e+04 6.039e-09
 12.82621    -65.2 2.189e+04 5.995e-09
 12.83610    -64.0 2.157e+04 5.954e-09
 12.84201    -62.7 2.119e+04 5.873e-09
 12.84695    -64.2 2.134e+04 7.470e-09
 12.85587    -62.7 2.103e+04 7.060e-09
 12.86575    -61.1 2.083e+04 6.618e-09
 12.87563    -59.6 2.058e+04 6.178e-09
 12.88552    -58.0 2.006e+04 5.723e-09
 12.89540    -56.3 1.941e+04 5.360e-09
 12.90347    -54.4 1.852e+04 5.059e-09
 12.91341    -56.2 2.050e+04 1.096e-08
 12.93009    -53.1 1.973e+04 9.417e-09
 12.94986    -50.0 1.887e+04 7.971e-09
 12.96963    -46.8 1.836e+04 7.189e-09
 12.98940    -44.2 1.799e+04 6.754e-09
 13.00917    -41.8 1.751e+04 6.357e-09
 13.02635    -39.5 1.707e+04 5.880e-09
 13.03623    -40.2 1.926e+04 1.169e-08
 13.04870    -37.3 1.883e+04 1.115e-08
 13.06847    -35.1 1.866e+04 1.058e-08
 13.08824    -33.2 1.815e+04 9.306e-09
 13.10801    -30.9 1.766e+04 8.169e-09
 13.12778    -28.7 1.740e+04 7.456e-09
 13.14755    -26.8 1.708e+04 6.665e-09
 13.15905    -24.8 1.685e+04 5.968e-09
 13.16894    -25.1 1.754e+04 7.606e-09
 13.18708    -23.3 1.696e+04 6.910e-09
 13.20685    -21.4 1.643e+04 6.358e-09
 13.22662    -19.5 1.603e+04 5.893e-09
 13.24639    -17.4 1.584e+04 5.382e-09
 13.26616    -15.2 1.576e+04 4.790e-09
 13.28188    -13.0 1.569e+04 4.110e-09
 13.29176    -12.8 1.568e+04 6.222e-09
 13.30569    -10.6 1.542e+04 5.442e-09
 13.32499     -8.8 1.523e+04 4.504e-09
 13.33488    -10.0 1.441e+04 2.840e-09
 13.34523     -8.5 1.432e+04 2.275e-09
 13.36500     -7.2 1.392e+04 1.828e-09
 13.38477     -6.0 1.309e+04 1.410e-09
 13.40453     -4.7 1.217e+04 1.080e-09
 13.41458     -3.2 1.147e+04 9.043e-10
 13.42447     -1.1 1.354e+04 1.871e-09
 13.44407      0.4 1.286e+04 1.402e-09
 13.46384      1.7 1.208e+04 1.030e-09
 13.48361      2.9 1.129e+04 8.217e-10
 13.50338      3.9 1.082e+04 7.328e-10
 13.52314      5.1 1.063e+04 6.918e-10
 13.53741      6.5 1.055e+04 6.907e-10
 13.54729      7.1 1.104e+04 7.269e-10
 13.56268      8.2 1.086e+04 7.176e-10
 13.58245      9.3 1.089e+04 7.555e-10
 13.60222     10.5 1.092e+04 8.092e-10
 13.62198     11.7 1.102e+04 8.733e-10
 13.64175     12.7 1.113e+04 9.245e-10
 13.66023     13.7 1.124e+04 9.730e-10
 13.67012     13.7 1.199e+04 1.327e-09
 13.68129     14.6 1.205e+04 1.423e-09
 13.70106     15.5 1.201e+04 1.494e-09
 13.72083     16.4 1.196e+04 1.555e-09
 13.74059     17.1 1.202e+04 1.647e-09
 13.76036     17.6 1.214e+04 1.752e-09
 13.78013     18.2 1.236e+04 1.898e-09
 13.79294     18.9 1.264e+04 2.113e-09
 13.80282     19.8 1.233e+04 2.347e-09
 13.81967     20.5 1.253e+04 2.470e-09
 13.83944     21.0 1.284e+04 2.621e-09
 13.85920     21.1 1.337e+04 2.845e-09
 13.87897     20.6 1.406e+04 3.204e-09
 13.89874     20.1 1.461e+04 3.623e-09
 13.91576     19.9 1.472e+04 3.828e-09
 13.92565     21.6 1.388e+04 2.825e-09
 13.93828     21.3 1.377e+04 2.719e-09
 13.95805     21.1 1.351e+04 2.495e-09
 13.97781     21.0 1.316e+04 2.184e-09
 13.99758     20.7 1.277e+04 1.847e-09
 14.01735     20.3 1.234e+04 1.540e-09
 14.03712     19.9 1.205e+04 1.342e-09
 14.04847     19.6 1.206e+04 1.271e-09
 14.05836     20.4 1.098e+04 8.661e-10
 14.07666     20.3 1.098e+04 8.036e-10
 14.09642     20.2 1.127e+04 8.001e-10
 14.11619     20.1 1.158e+04 8.382e-10
 14.13596     20.2 1.182e+04 9.011e-10
 14.15573     20.5 1.192e+04 9.596e-10
 14.17129     21.0 1.189e+04 1.000e-09
 14.18118     20.1 1.024e+04 4.918e-10
 14.19527     20.6 1.025e+04 5.320e-10
 14.21503     21.2 1.036e+04 5.836e-10
 14.23480     22.0 1.051e+04 6.395e-10
 14.25457     22.9 1.067e+04 6.879e-10
 14.27434     23.9 1.079e+04 7.243e-10
 14.29411     24.8 1.082e+04 7.188e-10
 14.31388     24.8 1.047e+04 6.828e-10
 14.33364     25.7 1.038e+04 6.401e-10
 14.35341     26.3 1.032e+04 5.796e-10
 14.37318     26.2 1.048e+04 5.611e-10
 14.39295     24.4 1.229e+04 6.783e-10
 14.41272     20.7 1.609e+04 1.184e-09
 14.42683     18.5 1.836e+04 2.250e-09
 14.43671     15.6 1.693e+04 7.622e-09
 14.45225     16.0 1.683e+04 1.038e-08
 14.47202     17.1 1.707e+04 1.262e-08
 14.49179     18.3 1.737e+04 1.513e-08
 14.51156     19.3 1.810e+04 1.854e-08
 14.53133     19.9 1.908e+04 1.954e-08
 14.54965     20.1 1.960e+04 1.775e-08
 14.55953     16.7 2.303e+04 6.055e-09
 14.57086     16.2 2.169e+04 3.912e-09
 14.59063     15.3 1.906e+04 2.584e-09
 14.61040     14.5 1.612e+04 1.834e-09
 14.63017     14.4 1.363e+04 1.369e-09
 14.64994     14.9 1.226e+04 1.108e-09
 14.66971     15.6 1.148e+04 9.304e-10
 14.68236     16.8 1.090e+04 7.983e-10
 14.69224     16.4 1.058e+04 7.629e-10
 14.70259     18.0 1.036e+04 6.845e-10
 14.71247     17.9 1.023e+04 6.402e-10
 14.72901     19.2 1.007e+04 5.679e-10
 14.74878     20.9 9.790e+03 4.698e-10
 14.76855     22.2 9.710e+03 4.239e-10
 14.78832     24.1 9.491e+03 3.589e-10
 14.80518     24.8 9.481e+03 3.489e-10
 14.81507     24.4 9.360e+03 3.180e-10
 14.82785     27.1 9.292e+03 3.109e-10
 14.84762     27.4 9.309e+03 3.131e-10
 14.87737     30.5 9.381e+03 3.285e-10
 14.91700     33.6 9.414e+03 3.372e-10
 14.93808     36.5 9.491e+03 3.594e-10
 14.95785     36.1 9.198e+03 3.279e-10
 14.99608     38.6 9.403e+03 3.903e-10
 15.03561     41.2 9.857e+03 5.027e-10
 15.06081     42.7 9.954e+03 5.440e-10
 15.07060     42.3 1.005e+04 5.618e-10
 15.08484     42.9 1.025e+04 6.365e-10
 15.10461     43.5 1.045e+04 7.160e-10
 15.12438     44.0 1.063e+04 7.882e-10
 15.14414     44.4 1.083e+04 8.634e-10
 15.16391     44.6 1.103e+04 9.545e-10
 15.18354     44.8 1.119e+04 1.048e-09
 15.19342     44.4 1.125e+04 1.086e-09
 15.20345     44.8 1.127e+04 1.115e-09
 15.22322     45.3 1.123e+04 1.086e-09
 15.24299     45.8 1.114e+04 1.002e-09
 15.26275     46.1 1.102e+04 8.862e-10
 15.28252     46.0 1.089e+04 7.680e-10
 15.30229     45.7 1.075e+04 6.859e-10
 15.31624     45.3 1.058e+04 6.432e-10
 15.32613     44.8 1.032e+04 5.015e-10
 15.34183     44.8 1.027e+04 5.033e-10
 15.36160     44.9 1.027e+04 5.174e-10
 15.38136     45.0 1.032e+04 5.576e-10
 15.40113     45.1 1.046e+04 6.195e-10
 15.42090     45.3 1.062e+04 6.872e-10
 15.43907     45.2 1.077e+04 7.417e-10
 15.44895     45.1 1.055e+04 6.345e-10
 15.47042     45.1 1.039e+04 5.830e-10
 15.51005     45.1 1.025e+04 5.201e-10
 15.54959     44.5 9.953e+03 4.013e-10
 15.58913     43.4 9.809e+03 3.623e-10
 15.61868     42.4 9.902e+03 3.814e-10
 15.63835     41.1 9.942e+03 4.073e-10
 15.65812     40.3 9.989e+03 4.526e-10
 15.67789     40.2 1.008e+04 4.962e-10
 15.69460     40.1 1.019e+04 5.452e-10
 15.70448     39.6 1.034e+04 6.027e-10
 15.71743     39.7 1.040e+04 6.192e-10
 15.73719     39.8 1.039e+04 6.150e-10
 15.75696     39.9 1.037e+04 6.034e-10
 15.77673     40.1 1.031e+04 5.747e-10
 15.79650     40.3 1.022e+04 5.408e-10
 15.81627     40.6 1.013e+04 4.953e-10
 15.82731     40.8 1.005e+04 4.651e-10
 15.83719     40.5 1.005e+04 4.690e-10
 15.85580     41.2 1.002e+04 4.358e-10
 15.87557     41.4 1.001e+04 4.260e-10
 15.90532     42.2 1.004e+04 4.058e-10
 15.94044     43.6 9.815e+03 3.579e-10
 15.96021     43.8 9.939e+03 3.661e-10
 15.98449     45.5 9.843e+03 3.455e-10
 16.02403     47.5 9.858e+03 3.490e-10
 16.06061     49.4 9.990e+03 3.678e-10
 16.08037     50.1 9.864e+03 3.636e-10
 16.09312     51.4 9.979e+03 3.727e-10
 16.11279     52.1 1.004e+04 3.806e-10
 16.13256     53.1 1.001e+04 3.855e-10
 16.15233     54.2 1.001e+04 3.943e-10
 16.17210     55.0 9.970e+03 4.048e-10
 16.19187     56.0 9.939e+03 4.188e-10
 16.20566     56.9 9.950e+03 4.376e-10
 16.21555     57.0 1.100e+04 5.554e-10
 16.23140     57.6 1.147e+04 6.240e-10
 16.25117     58.0 1.207e+04 7.193e-10
 16.27094     58.1 1.288e+04 8.642e-10
 16.29071     57.8 1.380e+04 1.100e-09
 16.31048     57.2 1.461e+04 1.470e-09
 16.32849     56.6 1.517e+04 2.028e-09
 16.33837     55.1 1.710e+04 5.286e-09
 16.35001     54.9 1.724e+04 6.294e-09
 16.36978     54.9 1.727e+04 6.984e-09
 16.38955     54.7 1.715e+04 6.916e-09
 16.40932     54.6 1.689e+04 6.378e-09
 16.42909     54.5 1.634e+04 5.302e-09
 16.44885     54.4 1.559e+04 4.187e-09
 16.46119     54.3 1.484e+04 3.179e-09
 16.47108     52.3 1.486e+04 2.820e-09
 16.48839     51.9 1.425e+04 2.268e-09
 16.50816     51.5 1.400e+04 2.140e-09
 16.52793     51.5 1.400e+04 2.192e-09
 16.54769     51.5 1.413e+04 2.435e-09
 16.56746     51.7 1.441e+04 2.905e-09
 16.58402     52.0 1.477e+04 3.562e-09
 16.59390     51.5 1.475e+04 3.575e-09
 16.60700     52.0 1.513e+04 4.305e-09
 16.62677     52.5 1.549e+04 5.066e-09
 16.64654     52.9 1.578e+04 5.715e-09
 16.66630     53.1 1.595e+04 6.063e-09
 16.68607     53.4 1.599e+04 6.145e-09
 16.70584     53.7 1.597e+04 6.025e-09
 16.71672     53.9 1.579e+04 5.571e-09
 16.72661     53.8 1.559e+04 5.245e-09
 16.74538     54.5 1.529e+04 4.825e-09
 16.76515     55.3 1.487e+04 4.036e-09
 16.78491     56.0 1.433e+04 3.140e-09
 16.80468     56.5 1.382e+04 2.446e-09
 16.82445     56.6 1.335e+04 1.914e-09
 16.83955     56.9 1.286e+04 1.496e-09
 16.84943     57.1 1.295e+04 1.592e-09
 16.86399     57.5 1.254e+04 1.333e-09
 16.88376     58.3 1.221e+04 1.128e-09
 16.90352     59.1 1.189e+04 9.472e-10
 16.92329     60.1 1.161e+04 8.001e-10
 16.94306     61.0 1.140e+04 7.007e-10
 16.96237     61.7 1.126e+04 6.530e-10
 16.97226     62.1 1.147e+04 7.528e-10
 16.98260     62.9 1.140e+04 7.205e-10
 17.00237     63.8 1.140e+04 7.235e-10
 17.02213     64.6 1.147e+04 7.548e-10
 17.04190     65.4 1.162e+04 8.287e-10
 17.06167     66.2 1.179e+04 9.246e-10
 17.08144     67.0 1.197e+04 1.027e-09
 17.09508     67.8 1.214e+04 1.122e-09
 17.10496     67.7 1.216e+04 1.083e-09
 17.12098     68.4 1.227e+04 1.157e-09
 17.14074     69.1 1.228e+04 1.190e-09
 17.16051     69.6 1.225e+04 1.184e-09
 17.18028     70.2 1.219e+04 1.160e-09
 17.20005     70.6 1.211e+04 1.126e-09
 17.21790     71.2 1.205e+04 1.095e-09
 17.22779     71.0 1.185e+04 9.245e-10
 17.23959     71.5 1.176e+04 8.708e-10
 17.25935     71.9 1.166e+04 8.225e-10
 17.27912     72.3 1.153e+04 7.717e-10
 17.29889     72.7 1.138e+04 7.169e-10
 17.31866     73.0 1.120e+04 6.644e-10
 17.33843     73.2 1.101e+04 6.262e-10
 17.35061     73.1 1.086e+04 6.125e-10
 17.36050     72.5 1.076e+04 5.919e-10
 17.37796     72.4 1.076e+04 6.113e-10
 17.39773     71.9 1.092e+04 7.052e-10
 17.41750     71.5 1.111e+04 7.999e-10
 17.44725     72.3 1.131e+04 8.978e-10
 17.47363     72.1 1.144e+04 1.034e-09
 17.49340     71.3 1.142e+04 1.014e-09
 17.52642     71.1 1.118e+04 9.367e-10
 17.56596     70.7 1.078e+04 7.705e-10
 17.60549     69.9 1.028e+04 5.970e-10
 17.64503     69.0 9.902e+03 5.089e-10
 17.68457     68.2 9.888e+03 5.147e-10
 17.71928     67.8 1.006e+04 5.694e-10
 17.73905     68.5 1.004e+04 5.729e-10
 17.76364     68.7 1.040e+04 6.720e-10
 17.79320     68.8 1.060e+04 7.319e-10
 17.81287     68.7 1.073e+04 7.765e-10
 17.83264     68.5 1.079e+04 8.053e-10
 17.85179     68.3 1.079e+04 8.152e-10
 17.86167     69.1 1.074e+04 7.895e-10
 17.87217     69.0 1.076e+04 7.985e-10
 17.89194     68.9 1.082e+04 8.148e-10
 17.91171     68.7 1.098e+04 8.585e-10
 17.93148     68.3 1.125e+04 9.447e-10
 17.95124     67.5 1.161e+04 1.073e-09
 17.97101     66.6 1.194e+04 1.242e-09
 17.98450     65.6 1.228e+04 1.381e-09
 17.99438     67.1 1.228e+04 1.339e-09
 18.01055     66.3 1.253e+04 1.464e-09
 18.03032     65.5 1.267e+04 1.499e-09
 18.05009     64.5 1.266e+04 1.483e-09
 18.06985     63.3 1.259e+04 1.396e-09
 18.08962     62.2 1.241e+04 1.246e-09
 18.11937     61.0 1.193e+04 9.923e-10
 18.15901     59.6 1.087e+04 6.345e-10
 18.19854     58.8 9.990e+03 4.442e-10
 18.23034     59.2 9.861e+03 4.253e-10
 18.25011     61.4 9.384e+03 3.249e-10
 18.27762     61.7 9.391e+03 3.312e-10
 18.31715     62.4 9.535e+03 3.725e-10
 18.34671     62.2 9.776e+03 4.515e-10
 18.36285     62.1 1.003e+04 5.420e-10
 18.37274     63.0 9.724e+03 4.426e-10
 18.38615     62.8 1.004e+04 5.419e-10
 18.40592     62.7 1.038e+04 6.683e-10
 18.42568     62.5 1.073e+04 8.189e-10
 18.44545     62.3 1.108e+04 9.913e-10
 18.46522     62.0 1.139e+04 1.167e-09
 18.48499     61.7 1.162e+04 1.319e-09
 18.49556     61.4 1.170e+04 1.390e-09
 18.50544     62.6 1.145e+04 1.245e-09
 18.52453     62.3 1.151e+04 1.299e-09
 18.54429     62.0 1.147e+04 1.279e-09
 18.56406     61.6 1.127e+04 1.177e-09
 18.59381     62.4 1.101e+04 1.028e-09
 18.63345     62.8 1.016e+04 6.920e-10
 18.67298     63.4 9.179e+03 3.871e-10
 18.71252     64.0 8.194e+03 1.931e-10
 18.74140     64.5 7.614e+03 1.166e-10
 18.76117     66.3 7.505e+03 1.124e-10
 18.79159     67.1 7.391e+03 9.320e-11
 18.81579     68.6 7.390e+03 9.428e-11
 18.83556     68.7 7.373e+03 9.241e-11
 18.87067     70.4 7.449e+03 1.026e-10
 18.91020     72.2 7.626e+03 1.256e-10
 18.94974     74.0 7.819e+03 1.559e-10
 18.98705     75.9 7.971e+03 1.797e-10
 19.00682     76.7 7.806e+03 1.524e-10
 19.02881     78.4 7.908e+03 1.658e-10
 19.06835     79.9 7.972e+03 1.728e-10
 19.10789     81.2 8.035e+03 1.804e-10
 19.14742     82.3 8.173e+03 1.990e-10
 19.18696     83.1 8.410e+03 2.384e-10
 19.22650     84.1 8.865e+03 3.210e-10
 19.25247     85.0 9.428e+03 4.385e-10
 19.27223     85.3 8.926e+03 3.420e-10
 19.30557     86.3 9.372e+03 4.352e-10
 19.34511     87.1 9.832e+03 5.386e-10
 19.37466     87.3 1.032e+04 6.668e-10
 19.38498     87.3 1.079e+04 8.112e-10
 19.39486     87.9 1.016e+04 6.296e-10
 19.41410     88.1 1.040e+04 6.905e-10
 19.43387     88.3 1.067e+04 7.754e-10
 19.45364     88.6 1.093e+04 8.697e-10
 19.47340     89.1 1.115e+04 9.619e-10
 19.49317     89.7 1.134e+04 1.050e-09
 19.50780     90.3 1.152e+04 1.142e-09
 19.51769     90.7 1.057e+04 6.585e-10
 19.53271     91.3 1.086e+04 7.017e-10
 19.55248     91.8 1.118e+04 7.683e-10
 19.57225     92.5 1.143e+04 8.512e-10
 19.59201     93.3 1.160e+04 9.337e-10
 19.61178     94.1 1.171e+04 1.005e-09
 19.63063     94.9 1.180e+04 1.071e-09
 19.64051     94.3 1.117e+04 7.863e-10
 19.65132     95.3 1.129e+04 9.128e-10
 19.67109     96.4 1.141e+04 1.026e-09
 19.69086     97.4 1.155e+04 1.137e-09
 19.71062     98.4 1.171e+04 1.245e-09
 19.74037     99.6 1.226e+04 1.544e-09
 19.76353    101.4 1.225e+04 1.555e-09
 19.78330    101.6 1.144e+04 1.014e-09
 19.81955    103.6 1.163e+04 1.146e-09
 19.85908    105.4 1.176e+04 1.165e-09
 19.89862    107.1 1.176e+04 1.151e-09
 19.93816    108.9 1.175e+04 1.105e-09
 19.97769    110.8 1.168e+04 1.046e-09
 20.00725    112.0 1.159e+04 1.001e-09
 20.01886    113.1 1.152e+04 9.810e-10
 20.02875    114.1 1.189e+04 1.110e-09
 20.04669    115.0 1.188e+04 1.050e-09
 20.06645    115.7 1.186e+04 1.017e-09
 20.08622    116.3 1.181e+04 1.005e-09
 20.10599    116.6 1.171e+04 9.922e-10
 20.12576    116.7 1.158e+04 9.674e-10
 20.14169    116.7 1.147e+04 9.352e-10
 20.15157    117.0 1.201e+04 1.084e-09
 20.16530    116.9 1.180e+04 1.026e-09
 20.18330    116.5 1.174e+04 9.895e-10
 20.19319    115.0 1.222e+04 1.200e-09
 20.20483    114.5 1.219e+04 1.148e-09
 20.22460    114.0 1.212e+04 1.099e-09
 20.24437    113.6 1.197e+04 1.067e-09
 20.26414    113.3 1.187e+04 1.068e-09
 20.27440    113.1 1.185e+04 1.079e-09
 20.28428    112.8 1.190e+04 1.313e-09
 20.30367    112.7 1.193e+04 1.344e-09
 20.32344    112.5 1.202e+04 1.413e-09
 20.34321    112.2 1.217e+04 1.507e-09
 20.36298    111.9 1.229e+04 1.599e-09
 20.38275    111.7 1.235e+04 1.673e-09
 20.39722    111.4 1.227e+04 1.717e-09
 20.40710    111.4 1.209e+04 1.589e-09
 20.42228    111.3 1.191e+04 1.530e-09
 20.44205    111.1 1.173e+04 1.467e-09
 20.46182    110.9 1.159e+04 1.409e-09
 20.48159    110.7 1.148e+04 1.359e-09
 20.50136    110.5 1.140e+04 1.314e-09
 20.52004    110.6 1.134e+04 1.265e-09
 20.52993    111.0 1.119e+04 1.095e-09
 20.54089    111.1 1.114e+04 1.066e-09
 20.56066    111.2 1.108e+04 1.013e-09
 20.58043    111.3 1.099e+04 9.362e-10
 20.60020    111.5 1.088e+04 8.453e-10
 20.61997    111.7 1.073e+04 7.544e-10
 20.63974    112.0 1.056e+04 6.783e-10
 20.65275    112.3 1.040e+04 6.244e-10
 20.66264    112.8 1.040e+04 6.306e-10
 20.67927    113.2 1.027e+04 5.975e-10
 20.69904    113.8 1.018e+04 5.834e-10
 20.71881    114.5 1.016e+04 5.812e-10
 20.73858    115.3 1.016e+04 5.815e-10
 20.75835    116.1 1.018e+04 5.873e-10
 20.77557    116.9 1.023e+04 5.999e-10
 20.78546    117.5 1.021e+04 6.092e-10
 20.79788    118.3 1.024e+04 6.314e-10
 20.81765    119.1 1.028e+04 6.603e-10
 20.83742    120.0 1.034e+04 6.884e-10
 20.85719    121.0 1.039e+04 7.070e-10
 20.87695    121.9 1.045e+04 7.167e-10
 20.89672    122.8 1.050e+04 7.231e-10
 20.90828    123.6 1.057e+04 7.323e-10
 20.91817    124.5 1.047e+04 6.989e-10
 20.93626    125.3 1.053e+04 6.896e-10
 20.95603    126.0 1.055e+04 6.898e-10
 20.97580    126.8 1.060e+04 6.942e-10
 20.99556    127.6 1.066e+04 7.025e-10
 21.01533    128.4 1.074e+04 7.123e-10
 21.03111    129.2 1.082e+04 7.209e-10
 21.04099    130.3 1.048e+04 6.496e-10
 21.05487    131.2 1.057e+04 6.559e-10
 21.07464    132.0 1.067e+04 6.608e-10
 21.09441    132.9 1.075e+04 6.614e-10
 21.11417    133.7 1.076e+04 6.595e-10
 21.13394    134.5 1.077e+04 6.536e-10
 21.15371    135.4 1.075e+04 6.518e-10
 21.16381    136.3 1.076e+04 6.560e-10
 21.17370    137.1 1.060e+04 5.832e-10
 21.19325    138.0 1.060e+04 5.873e-10
 21.21302    138.9 1.068e+04 6.088e-10
 21.23278    139.6 1.088e+04 6.681e-10
 21.25255    140.1 1.129e+04 7.734e-10
 21.27232    140.4 1.178e+04 9.894e-10
 21.28664    140.6 1.230e+04 1.335e-09
 21.29652    141.8 1.178e+04 9.376e-10
 21.31186    141.8 1.237e+04 1.307e-09
 21.33163    141.8 1.292e+04 1.853e-09
 21.35139    141.8 1.342e+04 2.588e-09
 21.37116    142.0 1.401e+04 3.435e-09
 21.39093    142.3 1.439e+04 4.408e-09
 21.40946    142.6 1.477e+04 5.021e-09
 21.41935    143.2 1.475e+04 5.078e-09
 21.43047    143.3 1.523e+04 5.409e-09
 21.45024    143.0 1.550e+04 5.242e-09
 21.47000    142.0 1.577e+04 4.799e-09
 21.48977    140.0 1.592e+04 4.128e-09
 21.50954    137.4 1.573e+04 3.700e-09
 21.52931    134.8 1.524e+04 3.765e-09
 21.54217    132.7 1.504e+04 3.983e-09
 21.55205    134.3 1.470e+04 3.368e-09
 21.56090    133.1 1.453e+04 3.906e-09
 21.57078    132.5 1.393e+04 3.401e-09
 21.58861    132.5 1.420e+04 3.818e-09
 21.60838    132.5 1.448e+04 3.974e-09
 21.62815    132.3 1.453e+04 3.883e-09
 21.64792    131.9 1.448e+04 3.568e-09
 21.66499    131.4 1.420e+04 3.105e-09
 21.67488    132.5 1.395e+04 2.792e-09
 21.68746    132.1 1.361e+04 2.460e-09
 21.70722    131.9 1.330e+04 2.227e-09
 21.72699    131.8 1.322e+04 2.203e-09
 21.74676    131.9 1.324e+04 2.243e-09
 21.76653    132.0 1.337e+04 2.423e-09
 21.78630    132.1 1.367e+04 2.794e-09
 21.79770    132.3 1.406e+04 3.328e-09
 21.80758    133.3 1.378e+04 2.652e-09
 21.82583    133.3 1.424e+04 3.332e-09
 21.84560    133.5 1.474e+04 4.210e-09
 21.86537    134.0 1.527e+04 5.171e-09
 21.88514    134.4 1.576e+04 6.028e-09
 21.90491    134.5 1.602e+04 6.202e-09
 21.92052    134.5 1.606e+04 5.671e-09
 21.93041    135.3 1.582e+04 5.958e-09
 21.94444    135.4 1.575e+04 5.413e-09
 21.96421    135.5 1.538e+04 4.305e-09
 21.98398    135.5 1.478e+04 3.303e-09
 22.00375    135.2 1.419e+04 2.503e-09
 22.02352    134.8 1.353e+04 1.892e-09
 22.04329    134.7 1.313e+04 1.656e-09
 22.06305    136.1 1.301e+04 1.653e-09
 22.08282    136.2 1.272e+04 1.505e-09
 22.11257    137.9 1.259e+04 1.463e-09
 22.15221    138.7 1.236e+04 1.362e-09
 22.19174    139.5 1.222e+04 1.303e-09
 22.23128    140.1 1.204e+04 1.211e-09
 22.27082    140.5 1.180e+04 1.098e-09
 22.29907    140.9 1.157e+04 9.935e-10
 22.31884    143.4 1.233e+04 1.330e-09
 22.34989    143.7 1.211e+04 1.186e-09
 22.38943    143.8 1.185e+04 1.039e-09
 22.42896    143.5 1.156e+04 9.013e-10
 22.46850    143.8 1.131e+04 7.931e-10
 22.50804    144.6 1.125e+04 7.027e-10
 22.53759    144.9 1.110e+04 6.383e-10
 22.55441    145.2 1.100e+04 5.941e-10
 22.56429    145.8 1.127e+04 6.669e-10
 22.57703    145.6 1.140e+04 6.497e-10
 22.59680    145.1 1.215e+04 7.517e-10
 22.61657    145.4 1.284e+04 8.781e-10
 22.63633    144.1 1.440e+04 1.293e-09
 22.65610    142.4 1.690e+04 2.666e-09
 22.67587    141.9 1.936e+04 6.156e-09
 22.68712    141.9 2.094e+04 1.095e-08
 22.69201    142.6 2.058e+04 9.872e-09
 22.70048    142.0 2.154e+04 1.285e-08
 22.71037    140.9 2.297e+04 2.043e-08
 22.72025    140.1 2.391e+04 3.611e-08
 22.73014    139.7 2.417e+04 6.700e-08
 22.74002    139.5 2.412e+04 1.236e-07
 22.74843    138.6 2.391e+04 2.062e-07
 22.75337    139.0 2.367e+04 1.984e-07
 22.75979    137.5 2.370e+04 2.307e-07
 22.76967    135.2 2.382e+04 2.270e-07
 22.77956    132.7 2.416e+04 2.036e-07
 22.78944    130.2 2.474e+04 1.541e-07
 22.79933    127.7 2.533e+04 1.075e-07
 22.80921    124.8 2.567e+04 7.874e-08
 22.81479    121.8 2.536e+04 6.705e-08
 22.81973    122.7 2.565e+04 6.558e-08
 22.82898    119.8 2.462e+04 6.452e-08
 22.83886    117.7 2.366e+04 6.208e-08
 22.84875    116.5 2.286e+04 5.724e-08
 22.85863    116.1 2.234e+04 4.998e-08
 22.86851    115.7 2.201e+04 3.970e-08
 22.87620    115.3 2.171e+04 2.900e-08
 22.88114    115.0 2.233e+04 4.890e-08
 22.88828    114.6 2.206e+04 3.385e-08
 22.89817    113.9 2.173e+04 2.074e-08
 22.91304    112.4 2.034e+04 1.126e-08
 22.92861    110.4 1.804e+04 4.602e-09
 22.93840    109.9 1.789e+04 3.673e-09
 22.95253    106.6 1.637e+04 2.169e-09
 22.97240    102.6 1.293e+04 1.643e-09
 22.99216    102.3 1.284e+04 1.618e-09
 23.01193    102.7 1.283e+04 1.670e-09
 23.03170    103.5 1.302e+04 1.915e-09
 23.05147    104.4 1.342e+04 2.289e-09
 23.06547    105.6 1.380e+04 2.708e-09
 23.07536    105.1 1.413e+04 3.307e-09
 23.09101    106.2 1.431e+04 3.520e-09
 23.11077    107.1 1.430e+04 3.455e-09
 23.13054    107.9 1.418e+04 3.210e-09
 23.15031    108.5 1.390e+04 2.840e-09
 23.17008    109.3 1.347e+04 2.349e-09
 23.18830    110.1 1.297e+04 1.881e-09
 23.19818    109.7 1.250e+04 1.417e-09
 23.20962    110.4 1.196e+04 1.071e-09
 23.22938    111.0 1.153e+04 8.673e-10
 23.24915    112.5 1.121e+04 7.562e-10
 23.26892    112.9 1.114e+04 7.240e-10
 23.29867    115.2 1.114e+04 7.253e-10
 23.32120    117.7 1.088e+04 6.262e-10
 23.34097    117.5 1.055e+04 5.057e-10
 23.37784    120.1 1.044e+04 4.677e-10
 23.41738    122.9 1.041e+04 4.415e-10
 23.44393    124.5 1.029e+04 4.035e-10
 23.45371    124.6 1.027e+04 3.972e-10
 23.46660    124.9 1.020e+04 3.789e-10
 23.48637    126.8 1.011e+04 3.532e-10
 23.50614    127.4 1.010e+04 3.491e-10
 23.53589    130.0 1.015e+04 3.545e-10
 23.56685    132.8 1.015e+04 3.429e-10
 23.58652    133.0 1.004e+04 3.231e-10
 23.60498    135.0 1.003e+04 3.221e-10
 23.62475    135.8 1.005e+04 3.237e-10
 23.64452    137.7 1.006e+04 3.284e-10
 23.66429    138.5 1.009e+04 3.347e-10
 23.68405    140.2 1.013e+04 3.532e-10
 23.69936    141.3 1.025e+04 3.807e-10
 23.70924    141.2 1.019e+04 3.792e-10
 23.72359    142.8 1.033e+04 4.283e-10
 23.74336    144.2 1.057e+04 5.051e-10
 23.76313    145.7 1.086e+04 6.134e-10
 23.78290    147.1 1.117e+04 7.468e-10
 23.80266    148.5 1.147e+04 8.931e-10
 23.82218    149.8 1.175e+04 1.037e-09
 23.83207    149.6 1.149e+04 9.241e-10
 23.84220    150.8 1.170e+04 1.028e-09
 23.86197    152.1 1.187e+04 1.105e-09
 23.88174    153.2 1.200e+04 1.150e-09
 23.90151    154.3 1.207e+04 1.161e-09
 23.92127    155.4 1.206e+04 1.143e-09
 23.94104    156.5 1.202e+04 1.101e-09
 23.95489    157.7 1.188e+04 9.927e-10
 23.96478    157.7 1.165e+04 8.957e-10
 23.98058    158.2 1.164e+04 8.794e-10
 24.00035    159.5 1.155e+04 8.069e-10
 24.02012    160.2 1.149e+04 7.782e-10
 24.04987    161.7 1.139e+04 7.016e-10
 24.07791    163.4 1.107e+04 5.779e-10
 24.09768    163.4 1.053e+04 4.378e-10
 24.12904    165.1 1.019e+04 3.718e-10
 24.16857    167.0 1.007e+04 3.663e-10
 24.20811    168.6 1.010e+04 3.702e-10
 24.24765    170.1 1.010e+04 3.815e-10
 24.28663    171.5 1.015e+04 3.877e-10
 24.30639    171.4 1.026e+04 4.276e-10
 24.32356    173.0 1.008e+04 3.859e-10
 24.34333    173.8 1.010e+04 3.905e-10
 24.36626    175.4 9.940e+03 3.507e-10
 24.40579    177.1 9.742e+03 3.142e-10
 24.44533    178.9 9.688e+03 3.073e-10
 24.48487    180.9 9.714e+03 3.103e-10
 24.52440    182.9 9.842e+03 3.291e-10
 24.56394    184.5 1.001e+04 3.632e-10
 24.58897    185.6 1.009e+04 3.885e-10
 24.59876    185.5 1.008e+04 4.081e-10
 24.61317    186.8 1.018e+04 4.376e-10
 24.63293    188.8 1.037e+04 4.945e-10
 24.65270    190.3 1.058e+04 5.523e-10
 24.67247    191.4 1.075e+04 5.948e-10
 24.69224    192.3 1.089e+04 6.261e-10
 24.71160    193.2 1.102e+04 6.584e-10
 24.72149    193.4 1.099e+04 6.429e-10
 24.73178    194.3 1.110e+04 6.688e-10
 24.75154    195.2 1.124e+04 7.051e-10
 24.77131    196.1 1.143e+04 7.555e-10
 24.79108    197.0 1.168e+04 8.264e-10
 24.81085    197.9 1.200e+04 9.247e-10
 24.83062    198.9 1.237e+04 1.055e-09
 24.84431    200.0 1.279e+04 1.227e-09
 24.85419    200.7 1.217e+04 9.458e-10
 24.87015    202.2 1.246e+04 1.060e-09
 24.88992    203.6 1.307e+04 1.256e-09
 24.90969    206.3 1.460e+04 1.714e-09
 24.92946    209.4 1.583e+04 2.167e-09
 24.94424    210.5 1.734e+04 2.304e-09
 24.95407    209.5 2.152e+04 2.755e-09
 24.96396    203.3 3.644e+04 5.533e-09
 24.97198    195.5 5.024e+04 1.063e-08
 24.97692    186.3 4.974e+04 2.132e-08
 24.98123    182.1 4.119e+04 8.066e-08
 24.98615    173.4 2.572e+04 1.116e-06
 24.98991    162.4 1.821e+04 1.320e-05
 24.99238    173.9 2.064e+04 4.695e-06
 24.99603    164.2 1.782e+04 2.035e-05
 25.00097    152.6 1.742e+04 2.970e-05
 25.00511    140.2 1.789e+04 2.180e-05
 25.00758    136.8 1.588e+04 7.593e-05
 25.01086    133.5 1.848e+04 1.153e-05
 25.01580    129.4 2.546e+04 1.459e-06
 25.02324    115.4 4.859e+04 6.663e-08
 25.03314     98.9 6.152e+04 6.660e-09
 25.03833     89.3 3.898e+04 7.343e-09
 25.04327     91.4 4.513e+04 3.356e-09
 25.05291     82.7 3.284e+04 3.786e-09
 25.06779     85.7 2.887e+04 4.630e-09
 25.08760     86.8 2.617e+04 7.002e-09
 25.09979     85.2 2.550e+04 1.132e-08
 25.10468     83.0 2.543e+04 7.719e-09
 25.11222     83.0 2.558e+04 1.378e-08
 25.12210     83.7 2.464e+04 3.844e-08
 25.13199     84.9 2.314e+04 1.625e-07
 25.14187     84.9 2.269e+04 4.510e-07
 25.15175     83.0 2.353e+04 5.955e-07
 25.16115     80.4 2.395e+04 4.606e-07
 25.16610     79.2 3.874e+04 1.849e-08
 25.17152     77.6 3.243e+04 2.720e-08
 25.18141     76.4 2.769e+04 2.735e-08
 25.19129     74.8 2.518e+04 2.041e-08
 25.20118     72.9 2.394e+04 1.502e-08
 25.21106     71.2 2.288e+04 1.188e-08
 25.22262     68.2 2.085e+04 1.048e-08
 25.23255     68.4 1.947e+04 8.542e-09
 25.24575     66.5 1.842e+04 6.691e-09
 25.26552     66.3 1.759e+04 6.415e-09
 25.28529     66.7 1.724e+04 6.616e-09
 25.30506     67.6 1.697e+04 6.530e-09
 25.32482     68.9 1.655e+04 5.818e-09
 25.34459     70.3 1.603e+04 4.676e-09
 25.35537     71.2 1.550e+04 3.584e-09
 25.36526     71.3 1.520e+04 2.611e-09
 25.38413     71.7 1.467e+04 1.995e-09
 25.40390     72.2 1.415e+04 1.597e-09
 25.42367     72.7 1.386e+04 1.368e-09
 25.44343     73.3 1.360e+04 1.230e-09
 25.47318     74.8 1.348e+04 1.152e-09
 25.51282     76.7 1.322e+04 1.118e-09
 25.55236     78.7 1.303e+04 1.102e-09
 25.59133     80.6 1.291e+04 1.085e-09
 25.61110     80.0 1.196e+04 4.555e-10
 25.63143     81.5 1.169e+04 4.463e-10
 25.67097     82.8 1.146e+04 4.496e-10
 25.71050     84.0 1.131e+04 4.855e-10
 25.75004     85.3 1.126e+04 5.795e-10
 25.77959     85.9 1.109e+04 6.509e-10
 25.79926     86.2 1.135e+04 7.266e-10
 25.81903     86.9 1.093e+04 7.473e-10
 25.83880     87.5 1.143e+04 8.632e-10
 25.85655     88.3 1.259e+04 1.045e-09
 25.86643     88.0 1.077e+04 7.535e-10
 25.87834     88.9 1.112e+04 8.940e-10
 25.89811     88.9 1.161e+04 1.121e-09
 25.91787     88.5 1.288e+04 1.554e-09
 25.93764     87.8 1.400e+04 2.222e-09
 25.95741     87.7 1.478e+04 3.147e-09
 25.97718     88.0 1.532e+04 4.237e-09
 25.98926     88.7 1.580e+04 5.353e-09
 25.99914     89.4 1.526e+04 4.341e-09
 26.01672     90.0 1.579e+04 5.369e-09
 26.03648     90.4 1.593e+04 5.705e-09
 26.05625     90.8 1.582e+04 5.603e-09
 26.07602     91.3 1.553e+04 5.215e-09
 26.09579     91.8 1.515e+04 4.650e-09
 26.11208     92.2 1.477e+04 4.115e-09
 26.12197     92.6 1.475e+04 4.040e-09
 26.13533     92.9 1.447e+04 3.688e-09
 26.15509     93.1 1.434e+04 3.491e-09
 26.17486     93.2 1.433e+04 3.375e-09
 26.19463     93.2 1.438e+04 3.256e-09
 26.21440     93.2 1.434e+04 3.151e-09
 26.23417     93.2 1.421e+04 2.977e-09
 26.24479     93.4 1.384e+04 2.622e-09
 26.25467     93.2 1.448e+04 3.211e-09
 26.27370     94.1 1.372e+04 2.440e-09
 26.29347     94.5 1.289e+04 1.585e-09
 26.31324     94.8 1.236e+04 1.154e-09
 26.34299     93.9 1.091e+04 4.961e-10
 26.36781     93.4 9.257e+03 2.097e-10
 26.38758     92.0 8.989e+03 1.791e-10
 26.42216     92.7 8.704e+03 1.600e-10
 26.46170     94.8 8.623e+03 1.552e-10
 26.50123     97.6 8.617e+03 1.540e-10
 26.54077    100.2 8.606e+03 1.526e-10
 26.58031    102.9 8.577e+03 1.469e-10
 26.61346    105.6 8.537e+03 1.347e-10
 26.63322    105.5 8.582e+03 1.417e-10
 26.65938    108.2 8.514e+03 1.252e-10
 26.69892    110.9 8.440e+03 1.135e-10
 26.73845    113.6 8.408e+03 1.115e-10
 26.77799    116.3 8.420e+03 1.132e-10
 26.81753    119.1 8.475e+03 1.230e-10
 26.85706    121.8 8.574e+03 1.416e-10
 26.87887    124.5 8.704e+03 1.663e-10
 26.89864    124.4 8.472e+03 1.343e-10
 26.93614    127.1 8.558e+03 1.516e-10
 26.97567    129.8 8.684e+03 1.739e-10
 27.01521    132.4 8.834e+03 2.020e-10
 27.04181    134.9 9.030e+03 2.388e-10
 27.06158    135.2 8.957e+03 2.216e-10
 27.09428    137.6 9.201e+03 2.677e-10
 27.12452    139.7 9.426e+03 3.222e-10
 27.14429    139.7 8.999e+03 2.273e-10
 27.17336    141.7 9.392e+03 3.035e-10
 27.21289    143.5 9.806e+03 4.053e-10
 27.25243    145.2 1.017e+04 5.112e-10
 27.28199    145.3 1.019e+04 5.156e-10
 27.30166    145.7 1.019e+04 5.241e-10
 27.32142    146.3 1.023e+04 5.399e-10
 27.34119    147.0 1.028e+04 5.528e-10
 27.36096    147.5 1.031e+04 5.569e-10
 27.37985    148.1 1.029e+04 5.505e-10
 27.38984    147.7 1.036e+04 5.697e-10
 27.41058    149.0 1.040e+04 5.748e-10
 27.44013    149.5 1.038e+04 5.769e-10
 27.45980    150.1 1.038e+04 5.828e-10
 27.47957    150.9 1.040e+04 5.929e-10
 27.49934    151.6 1.043e+04 6.043e-10
 27.51256    152.3 1.049e+04 6.185e-10
 27.52245    152.2 1.047e+04 6.143e-10
 27.53888    152.9 1.054e+04 6.313e-10
 27.55864    153.6 1.059e+04 6.483e-10
 27.57841    154.3 1.062e+04 6.625e-10
 27.59818    155.0 1.064e+04 6.759e-10
 27.61795    155.7 1.068e+04 6.905e-10
 27.63539    156.3 1.072e+04 7.078e-10
 27.64527    156.0 1.064e+04 6.759e-10
 27.65749    156.5 1.072e+04 7.080e-10
 27.67725    157.0 1.083e+04 7.471e-10
 27.69702    157.4 1.092e+04 7.832e-10
 27.71679    157.8 1.098e+04 8.102e-10
 27.73656    158.2 1.098e+04 8.101e-10
 27.75633    158.6 1.095e+04 7.954e-10
 27.76809    159.0 1.082e+04 7.427e-10
 27.77798    158.8 1.088e+04 7.808e-10
 27.79586    159.2 1.078e+04 7.431e-10
 27.81563    159.7 1.063e+04 6.772e-10
 27.83540    159.8 1.046e+04 5.944e-10
 27.85517    159.8 1.030e+04 5.243e-10
 27.87494    159.5 1.018e+04 4.676e-10
 27.89092    159.2 1.007e+04 4.269e-10
 27.90080    159.7 1.037e+04 5.472e-10
 27.91447    159.4 1.030e+04 5.127e-10
 27.93424    159.1 1.023e+04 4.844e-10
 27.95401    158.4 1.017e+04 4.554e-10
 27.97378    158.0 1.008e+04 4.258e-10
 27.99355    157.3 1.005e+04 3.981e-10
 28.01331    157.0 9.965e+03 3.719e-10
 28.04307    156.8 1.003e+04 3.648e-10
 28.08270    155.5 9.725e+03 3.095e-10
 28.12224    153.0 9.603e+03 2.611e-10
 28.14664    149.7 9.824e+03 2.405e-10
 28.16641    152.3 9.606e+03 2.241e-10
 28.20131    149.3 9.677e+03 2.223e-10
 28.23086    147.0 9.725e+03 2.241e-10
 28.25053    145.6 9.760e+03 2.281e-10
 28.26927    143.2 1.009e+04 2.602e-10
 28.27916    145.3 9.834e+03 2.363e-10
 28.29007    142.8 1.024e+04 2.960e-10
 28.30984    137.7 1.210e+04 5.851e-10
 28.32462    134.3 1.336e+04 9.144e-10
 28.33445    131.2 1.563e+04 1.338e-09
 28.34047    124.7 2.171e+04 3.130e-09
 28.34541    131.0 1.681e+04 1.539e-09
 28.35422    123.5 2.345e+04 4.380e-09
 28.36410    116.4 2.656e+04 1.423e-08
 28.37399    111.8 2.591e+04 3.468e-08
 28.38387    109.3 2.473e+04 5.204e-08
 28.39376    107.8 2.427e+04 5.136e-08
 28.40188    106.5 2.382e+04 4.199e-08
 28.40683    108.5 2.385e+04 5.523e-08
 28.41353    107.3 2.369e+04 4.154e-08
 28.41911    105.2 2.416e+04 2.334e-08
 28.42405    105.5 2.412e+04 2.533e-08
 28.43329    102.5 2.431e+04 1.194e-08
 28.44318     97.9 2.362e+04 5.018e-09
 28.45306     94.9 2.182e+04 3.170e-09
 28.46794     92.1 2.041e+04 2.155e-09
 28.48775     83.1 1.414e+04 1.166e-09
 28.50752     78.8 1.289e+04 1.207e-09
 28.52480     74.8 1.394e+04 1.710e-09
 28.53469     74.5 1.492e+04 1.943e-09
 28.54207     67.2 1.783e+04 3.962e-09
 28.55190     66.3 1.820e+04 4.601e-09
 28.56678     61.1 2.054e+04 1.117e-08
 28.58660     57.2 2.097e+04 1.708e-08
 28.60636     54.8 2.048e+04 1.474e-08
 28.62613     51.6 2.019e+04 8.307e-09
 28.64590     43.4 2.035e+04 3.304e-09
 28.65751     30.3 1.678e+04 1.832e-09
 28.66740     26.3 1.432e+04 1.407e-09
 28.68544     23.0 1.376e+04 1.732e-09
 28.70521     23.4 1.438e+04 2.275e-09
 28.72497     24.0 1.462e+04 2.612e-09
 28.74474     24.7 1.442e+04 2.418e-09
 28.76451     26.0 1.407e+04 2.017e-09
 28.79426     23.7 1.368e+04 9.243e-10
 28.83390     20.7 1.281e+04 4.113e-10
 28.87343     18.3 1.116e+04 1.978e-10
 28.90335     17.4 9.716e+03 1.423e-10
 28.92312     14.8 9.213e+03 1.318e-10
 28.95250     16.2 9.301e+03 1.483e-10
 28.99204     18.3 9.306e+03 1.599e-10
 29.03158     20.5 9.297e+03 1.475e-10
 29.07111     22.5 9.199e+03 1.299e-10
 29.11065     24.3 9.081e+03 1.083e-10
 29.14900     25.9 9.045e+03 9.808e-11
 29.16877     23.9 9.550e+03 1.528e-10
 29.18972     25.3 9.606e+03 1.653e-10
 29.22926     26.9 9.648e+03 1.909e-10
 29.26880     28.7 9.682e+03 2.133e-10
 29.30833     30.5 9.688e+03 2.129e-10
 29.34787     31.9 9.660e+03 2.138e-10
 29.38741     33.0 9.630e+03 2.096e-10
 29.41442     33.9 9.504e+03 1.900e-10
 29.43419     31.6 9.270e+03 1.476e-10
 29.46648     32.1 9.144e+03 1.424e-10
 29.50602     32.4 9.189e+03 1.571e-10
 29.54555     31.8 9.505e+03 1.941e-10
 29.58509     30.2 1.028e+04 3.171e-10
 29.62463     27.8 1.149e+04 6.386e-10
 29.66006     25.9 1.221e+04 9.326e-10
 29.67983     24.8 1.222e+04 9.055e-10
 29.70370     22.6 1.260e+04 1.129e-09
 29.74324     21.4 1.221e+04 1.022e-09
 29.77723     20.9 1.152e+04 7.722e-10
 29.79700     19.5 1.136e+04 6.895e-10
 29.82231     18.2 1.060e+04 4.832e-10
 29.86185     17.6 1.024e+04 4.068e-10
 29.90138     17.3 1.055e+04 4.554e-10
 29.92538     14.9 1.127e+04 6.408e-10
 29.93517     14.7 1.158e+04 7.141e-10
 29.95061     15.3 1.179e+04 7.483e-10
 29.97038     13.5 1.244e+04 1.155e-09
 29.99015     13.7 1.299e+04 1.340e-09
 30.00991     12.6 1.341e+04 1.785e-09
 30.02968     12.7 1.352e+04 1.859e-09
 30.04811     12.3 1.329e+04 1.811e-09
 30.05799     12.7 1.319e+04 1.716e-09
 30.06922     12.9 1.241e+04 1.378e-09
 30.08899     12.5 1.186e+04 1.103e-09
 30.10876     12.1 1.136e+04 9.113e-10
 30.12852     11.5 1.132e+04 7.387e-10
 30.14829     10.1 1.105e+04 6.466e-10
 30.16806      8.8 1.057e+04 5.909e-10
 30.18082      8.4 1.046e+04 5.871e-10
 30.19070      8.5 1.039e+04 5.772e-10
 30.20760      8.4 1.037e+04 5.993e-10
 30.22737      8.3 1.054e+04 6.442e-10
 30.24713      4.1 1.295e+04 9.076e-10
 30.26690     -5.2 1.740e+04 2.667e-09
 30.28667    -10.3 1.818e+04 6.402e-09
 30.30364    -11.3 1.860e+04 1.298e-08
 30.31352    -11.6 1.857e+04 1.373e-08
 30.32621    -11.2 1.909e+04 1.730e-08
 30.34598    -11.8 1.913e+04 1.623e-08
 30.36574    -12.7 1.869e+04 1.022e-08
 30.38551    -16.4 1.769e+04 5.086e-09
 30.40528    -21.1 1.526e+04 2.638e-09
 30.42505    -22.8 1.429e+04 1.966e-09
 30.43635    -23.3 1.395e+04 1.686e-09
 30.44623    -24.4 1.351e+04 1.394e-09
 30.46459    -24.7 1.288e+04 1.163e-09
 30.48435    -24.4 1.245e+04 1.002e-09
 30.50412    -24.0 1.226e+04 8.865e-10
 30.52389    -23.8 1.225e+04 7.990e-10
 30.54366    -23.9 1.229e+04 7.472e-10
 30.55917    -24.3 1.234e+04 7.363e-10
 30.56906    -25.9 1.197e+04 5.350e-10
 30.58320    -26.3 1.182e+04 6.667e-10
 30.60296    -25.7 1.177e+04 8.270e-10
 30.62273    -24.4 1.200e+04 9.686e-10
 30.64250    -23.2 1.237e+04 1.113e-09
 30.66227    -22.6 1.283e+04 1.265e-09
 30.68200    -22.4 1.334e+04 1.435e-09
 30.70176    -24.1 1.474e+04 2.580e-09
 30.72157    -24.3 1.545e+04 3.307e-09
 30.74134    -23.6 1.620e+04 4.352e-09
 30.76111    -22.7 1.688e+04 5.656e-09
 30.78088    -21.5 1.762e+04 7.326e-09
 30.80065    -20.3 1.877e+04 1.029e-08
 30.81470    -19.6 2.012e+04 1.497e-08
 30.82459    -21.0 1.858e+04 8.762e-09
 30.84018    -21.2 2.048e+04 1.040e-08
 30.85995    -22.3 2.387e+04 1.253e-08
 30.87473    -23.3 2.761e+04 2.144e-08
 30.88096    -24.5 2.831e+04 2.017e-08
 30.88590    -27.0 2.910e+04 4.614e-09
 30.89944    -30.5 2.750e+04 9.282e-09
 30.91926    -34.4 2.216e+04 7.217e-09
 30.93753    -36.6 1.867e+04 4.981e-09
 30.94741    -36.9 1.459e+04 2.448e-09
 30.95879    -37.1 1.417e+04 2.293e-09
 30.97856    -37.3 1.396e+04 2.198e-09
 30.99833    -37.4 1.388e+04 2.163e-09
 31.01810    -37.4 1.396e+04 2.211e-09
 31.03787    -37.2 1.419e+04 2.350e-09
 31.05763    -37.0 1.451e+04 2.506e-09
 31.07023    -37.0 1.469e+04 2.581e-09
 31.08012    -37.1 1.393e+04 2.208e-09
 31.09717    -37.6 1.396e+04 2.224e-09
 31.11694    -38.1 1.380e+04 2.182e-09
 31.13671    -38.4 1.351e+04 2.090e-09
 31.15463    -38.7 1.324e+04 1.955e-09
 31.16451    -38.7 1.354e+04 2.126e-09
 31.17624    -39.1 1.351e+04 2.030e-09
 31.19306    -39.5 1.361e+04 2.005e-09
 31.20294    -40.4 1.374e+04 2.114e-09
 31.21578    -41.4 1.387e+04 2.134e-09
 31.23555    -42.4 1.387e+04 2.135e-09
 31.25532    -43.5 1.371e+04 2.135e-09
 31.27509    -44.2 1.354e+04 2.145e-09
 31.29485    -44.7 1.347e+04 2.110e-09
 31.31462    -45.1 1.335e+04 1.957e-09
 31.32577    -45.6 1.312e+04 1.722e-09
 31.33565    -47.4 1.360e+04 1.598e-09
 31.35416    -48.8 1.309e+04 1.302e-09
 31.37393    -50.3 1.266e+04 1.120e-09
 31.39370    -52.0 1.248e+04 1.042e-09
 31.41346    -53.9 1.248e+04 1.027e-09
 31.43323    -56.2 1.272e+04 1.120e-09
 31.44859    -58.4 1.290e+04 1.321e-09
 31.45857    -58.1 1.312e+04 1.348e-09
 31.48285    -62.4 1.301e+04 1.400e-09
 31.52239    -65.0 1.222e+04 1.256e-09
 31.55194    -66.2 1.107e+04 7.643e-10
 31.57141    -66.1 1.041e+04 4.904e-10
 31.58130    -66.3 1.048e+04 4.971e-10
 31.59138    -67.2 9.852e+03 3.293e-10
 31.61115    -67.5 9.538e+03 2.543e-10
 31.64090    -69.0 9.340e+03 2.155e-10
 31.68053    -72.6 9.481e+03 1.867e-10
 31.70432    -86.1 1.447e+04 1.924e-10
 31.72408    -86.4 1.510e+04 2.097e-10
 31.74962   -102.2 1.973e+04 1.934e-09
 31.76929   -104.7 2.009e+04 8.188e-09
 31.78906   -106.4 2.023e+04 1.505e-08
 31.80883   -108.2 2.014e+04 1.698e-08
 31.82694   -110.6 1.923e+04 1.347e-08
 31.83683   -110.0 1.926e+04 1.352e-08
 31.84837   -113.6 1.758e+04 5.573e-09
 31.86814   -119.9 1.439e+04 1.553e-09
 31.88790   -126.3 1.119e+04 6.495e-10
 31.90767   -129.2 1.018e+04 5.195e-10
 31.92744   -130.0 1.013e+04 5.121e-10
 31.94721   -130.9 1.043e+04 5.790e-10
 31.95965   -132.5 1.091e+04 6.809e-10
 31.96954   -131.2 1.031e+04 4.989e-10
 31.98675   -133.6 1.093e+04 5.910e-10
 32.00651   -137.3 1.196e+04 8.019e-10
 32.02628   -141.9 1.325e+04 1.262e-09
 32.04605   -146.1 1.437e+04 2.085e-09
 32.06582   -149.6 1.512e+04 3.136e-09
 32.08248   -152.5 1.545e+04 3.844e-09
 32.09236   -151.5 1.567e+04 4.099e-09
 32.10536   -153.9 1.575e+04 4.422e-09
 32.12512   -156.1 1.559e+04 4.381e-09
 32.14489   -157.6 1.476e+04 3.398e-09
 32.16466   -159.0 1.359e+04 2.157e-09
 32.18443   -160.6 1.232e+04 1.329e-09
 32.20420   -162.0 1.126e+04 8.909e-10
 32.21518   -163.0 1.062e+04 6.785e-10
 32.22507   -162.5 1.044e+04 6.318e-10
 32.24373   -162.8 1.007e+04 5.119e-10
 32.26350   -162.8 9.877e+03 4.425e-10
 32.28327   -162.8 9.767e+03 3.997e-10
 32.31302   -163.2 9.708e+03 3.712e-10
 32.35265   -163.2 9.630e+03 3.506e-10
 32.39219   -163.3 9.496e+03 3.141e-10
 32.43173   -163.3 9.259e+03 2.615e-10
 32.46103   -163.1 8.932e+03 2.037e-10
 32.48079   -163.5 8.569e+03 1.485e-10
 32.51080   -162.9 8.249e+03 1.156e-10
 32.53242   -162.3 8.096e+03 1.016e-10
 32.55218   -161.9 7.953e+03 8.213e-11
 32.58987   -161.5 7.949e+03 8.079e-11
 32.62941   -161.8 8.004e+03 8.202e-11
 32.66895   -164.2 8.878e+03 1.414e-10
 32.70667   -167.0 1.106e+04 4.559e-10
 32.72644   -167.0 1.096e+04 4.619e-10
 32.74802   -169.2 1.199e+04 9.766e-10
 32.78756   -171.6 1.240e+04 1.362e-09
 32.82709   -174.0 1.242e+04 1.439e-09
 32.86663   -176.1 1.207e+04 1.299e-09
 32.89619   -177.3 1.160e+04 1.074e-09
 32.91586   -178.2 1.148e+04 9.993e-10
 32.93562   -179.4 1.146e+04 9.796e-10
 32.95539   -180.4 1.148e+04 9.807e-10
 32.97189   -181.4 1.158e+04 1.008e-09
 32.98178   -181.7 1.163e+04 1.047e-09
 32.99493   -182.5 1.183e+04 1.131e-09
 33.01470   -183.5 1.203e+04 1.222e-09
 33.03447   -184.3 1.224e+04 1.314e-09
 33.05423   -185.2 1.241e+04 1.388e-09
 33.07400   -186.2 1.249e+04 1.419e-09
 33.09377   -187.1 1.250e+04 1.423e-09
 33.10460   -188.0 1.243e+04 1.388e-09
 33.11449   -189.3 1.297e+04 1.761e-09
 33.13331   -190.1 1.278e+04 1.634e-09
 33.15308   -190.8 1.253e+04 1.465e-09
 33.17284   -191.3 1.228e+04 1.320e-09
 33.19261   -191.8 1.207e+04 1.214e-09
 33.21238   -192.0 1.190e+04 1.146e-09
 33.22742   -192.2 1.179e+04 1.110e-09
 33.23731   -192.7 1.218e+04 1.474e-09
 33.25192   -192.8 1.216e+04 1.472e-09
 33.27169   -192.9 1.215e+04 1.487e-09
 33.29145   -193.0 1.219e+04 1.542e-09
 33.31122   -193.1 1.233e+04 1.658e-09
 33.33099   -193.2 1.259e+04 1.863e-09
 33.35025   -193.3 1.288e+04 2.111e-09
 33.36013   -193.7 1.321e+04 2.505e-09
 33.37053   -193.7 1.343e+04 2.702e-09
 33.39030   -194.0 1.351e+04 2.757e-09
 33.41006   -194.5 1.348e+04 2.733e-09
 33.42983   -194.8 1.313e+04 2.366e-09
 33.44960   -194.9 1.257e+04 1.840e-09
 33.46937   -195.2 1.197e+04 1.402e-09
 33.48296   -195.4 1.145e+04 1.083e-09
 33.49284   -195.9 1.120e+04 8.955e-10
 33.50891   -196.1 1.083e+04 7.101e-10
 33.52867   -196.2 1.055e+04 5.833e-10
 33.54844   -196.2 1.033e+04 4.999e-10
 33.57819   -196.4 1.012e+04 4.271e-10
 33.61783   -195.2 9.787e+03 3.279e-10
 33.65736   -194.4 9.599e+03 2.602e-10
 33.69690   -193.5 9.499e+03 2.158e-10
 33.72880   -192.7 9.499e+03 1.994e-10
 33.74857   -193.3 9.665e+03 2.282e-10
 33.77597   -192.8 9.988e+03 2.732e-10
 33.81551   -192.3 1.039e+04 3.770e-10
 33.84506   -192.1 1.072e+04 5.131e-10
 33.86131   -191.7 1.107e+04 6.769e-10
 33.87120   -191.6 1.112e+04 7.281e-10
 33.88450   -191.3 1.145e+04 9.106e-10
 33.89993   -191.1 1.169e+04 1.053e-09
 33.90981   -191.1 1.164e+04 1.035e-09
 33.93402   -191.3 1.192e+04 1.202e-09
 33.97366   -191.0 1.226e+04 1.441e-09
 33.99421   -191.3 1.234e+04 1.500e-09
 34.00400   -191.9 1.242e+04 1.494e-09
 34.02288   -192.1 1.244e+04 1.490e-09
 34.04265   -192.5 1.243e+04 1.449e-09
 34.06242   -192.7 1.244e+04 1.408e-09
 34.08219   -193.2 1.244e+04 1.365e-09
 34.10195   -193.5 1.245e+04 1.344e-09
 34.11684   -193.9 1.241e+04 1.331e-09
 34.12673   -194.4 1.266e+04 1.416e-09
 34.14149   -194.8 1.262e+04 1.443e-09
 34.16126   -195.2 1.256e+04 1.458e-09
 34.18103   -195.5 1.244e+04 1.469e-09
 34.20080   -195.6 1.228e+04 1.459e-09
 34.22056   -195.7 1.207e+04 1.415e-09
 34.23967   -195.7 1.186e+04 1.325e-09
 34.24955   -196.9 1.175e+04 1.361e-09
 34.26010   -196.7 1.152e+04 1.198e-09
 34.27987   -196.4 1.128e+04 1.045e-09
 34.29964   -196.0 1.106e+04 9.102e-10
 34.31941   -195.7 1.086e+04 7.957e-10
 34.33917   -195.4 1.070e+04 6.999e-10
 34.35894   -195.1 1.057e+04 6.227e-10
 34.37237   -194.9 1.044e+04 5.579e-10
 34.38226   -194.9 1.028e+04 5.053e-10
 34.39848   -194.6 1.014e+04 4.542e-10
 34.41825   -194.3 1.000e+04 4.104e-10
 34.44800   -193.6 9.973e+03 3.830e-10
 34.48551   -193.7 9.946e+03 3.503e-10
 34.50528   -194.6 9.900e+03 3.127e-10
 34.52717   -194.7 1.003e+04 3.137e-10
 34.56671   -194.9 1.028e+04 3.404e-10
 34.60624   -195.6 1.074e+04 4.535e-10
 34.64578   -196.1 1.107e+04 5.950e-10
 34.68532   -196.3 1.127e+04 6.818e-10
 34.72485   -196.4 1.131e+04 6.918e-10
 34.75083   -197.0 1.143e+04 7.268e-10
 34.76061   -198.0 1.193e+04 1.179e-09
 34.77408   -197.9 1.181e+04 1.072e-09
 34.79385   -198.1 1.169e+04 9.860e-10
 34.81361   -198.5 1.174e+04 9.926e-10
 34.83338   -199.4 1.202e+04 1.097e-09
 34.85315   -200.2 1.240e+04 1.329e-09
 34.87292   -201.0 1.283e+04 1.649e-09
 34.88344   -201.6 1.325e+04 2.001e-09
 34.89332   -201.9 1.383e+04 2.558e-09
 34.91246   -202.6 1.408e+04 2.819e-09
 34.93222   -203.4 1.414e+04 2.900e-09
 34.95199   -204.0 1.403e+04 2.851e-09
 34.97176   -204.4 1.370e+04 2.525e-09
 34.99153   -204.6 1.326e+04 2.046e-09
 35.00626   -204.8 1.277e+04 1.611e-09
 35.01614   -205.4 1.276e+04 1.669e-09
 35.03107   -205.6 1.230e+04 1.325e-09
 35.05083   -205.7 1.189e+04 1.088e-09
 35.07060   -205.7 1.151e+04 9.095e-10
 35.09037   -205.3 1.113e+04 7.575e-10
 35.11014   -204.6 1.075e+04 6.225e-10
 35.12908   -203.8 1.041e+04 5.060e-10
 35.13897   -204.6 1.065e+04 6.115e-10
 35.14968   -203.5 1.037e+04 4.944e-10
 35.16944   -202.2 1.021e+04 4.136e-10
 35.19919   -200.7 1.018e+04 3.709e-10
 35.23883   -200.2 1.011e+04 3.370e-10
 35.26199   -198.9 9.834e+03 2.811e-10
 35.27122   -199.7 1.011e+04 3.641e-10
 35.28760   -200.9 1.008e+04 3.597e-10
 35.31790   -198.9 9.838e+03 3.117e-10
 35.35744   -196.8 9.769e+03 2.845e-10
 35.39697   -195.0 9.795e+03 2.770e-10
 35.43651   -193.4 9.886e+03 2.795e-10
 35.47605   -192.1 1.017e+04 3.164e-10
 35.50763   -191.0 1.053e+04 4.091e-10
 35.52740   -192.1 1.128e+04 7.853e-10
 35.55512   -191.0 1.172e+04 1.048e-09
 35.59466   -190.1 1.215e+04 1.330e-09
 35.63419   -189.5 1.251e+04 1.597e-09
 35.67373   -189.3 1.282e+04 1.827e-09
 35.71327   -189.4 1.300e+04 1.980e-09
 35.75280   -189.6 1.300e+04 2.020e-09
 35.77305   -189.6 1.275e+04 1.962e-09
 35.79282   -191.7 1.167e+04 1.345e-09
 35.83188   -190.7 1.096e+04 8.839e-10
 35.87141   -189.3 1.031e+04 5.490e-10
 35.91095   -187.7 9.933e+03 3.863e-10
 35.95049   -186.6 9.668e+03 3.115e-10
 35.99002   -185.6 9.435e+03 2.678e-10
 36.01870   -184.1 9.224e+03 2.415e-10
 36.03847   -184.4 8.622e+03 1.410e-10
 36.06910   -182.5 8.594e+03 1.340e-10
 36.10863   -180.8 8.593e+03 1.332e-10
 36.14817   -179.3 8.612e+03 1.417e-10
 36.18771   -178.0 8.935e+03 2.036e-10
 36.22724   -176.8 9.406e+03 3.218e-10
 36.26434   -175.4 9.875e+03 4.877e-10
 36.28411   -175.4 9.503e+03 3.474e-10
 36.30632   -174.3 1.023e+04 5.901e-10
 36.34585   -174.0 1.105e+04 9.353e-10
 36.38539   -174.4 1.187e+04 1.373e-09
 36.40684   -174.2 1.194e+04 1.449e-09
 36.41663   -175.0 1.261e+04 1.888e-09
 36.43462   -175.4 1.318e+04 2.250e-09
 36.45438   -176.4 1.373e+04 2.747e-09
 36.47415   -177.6 1.414e+04 3.324e-09
 36.49392   -178.4 1.445e+04 3.924e-09
 36.51369   -178.9 1.468e+04 4.401e-09
 36.52957   -179.4 1.481e+04 4.594e-09
 36.53945   -180.6 1.513e+04 5.013e-09
 36.55323   -181.6 1.528e+04 4.681e-09
 36.57299   -183.0 1.519e+04 4.046e-09
 36.59276   -184.7 1.509e+04 3.472e-09
 36.61253   -186.6 1.491e+04 3.217e-09
 36.63230   -188.2 1.480e+04 3.186e-09
 36.64523   -189.3 1.472e+04 3.223e-09
 36.65511   -190.1 1.526e+04 4.078e-09
 36.66227   -190.7 1.495e+04 4.013e-09
 36.67216   -192.0 1.512e+04 4.493e-09
 36.69160   -192.3 1.461e+04 3.760e-09
 36.71137   -192.4 1.398e+04 2.935e-09
 36.73114   -192.5 1.329e+04 2.197e-09
 36.75091   -192.6 1.262e+04 1.630e-09
 36.77068   -192.5 1.208e+04 1.254e-09
 36.78510   -192.5 1.171e+04 1.048e-09
 36.79498   -193.3 1.145e+04 8.744e-10
 36.82019   -193.6 1.107e+04 6.876e-10
 36.85983   -192.8 1.070e+04 5.527e-10
 36.89937   -192.2 1.062e+04 5.152e-10
 36.93890   -191.9 1.064e+04 5.149e-10
 36.97844   -192.1 1.097e+04 5.845e-10
 37.01798   -192.7 1.137e+04 7.153e-10
 37.04082   -193.8 1.158e+04 8.264e-10
 37.06059   -194.9 1.163e+04 8.120e-10
 37.09705   -196.3 1.163e+04 8.527e-10
 37.13659   -197.3 1.151e+04 8.542e-10
 37.17612   -198.0 1.124e+04 8.003e-10
 37.21566   -198.8 1.099e+04 7.216e-10
 37.25520   -199.3 1.078e+04 6.497e-10
 37.28647   -199.6 1.057e+04 5.830e-10
 37.30624   -200.5 1.033e+04 5.263e-10
 37.33427   -200.1 1.001e+04 4.505e-10
 37.37381   -199.4 9.857e+03 4.167e-10
 37.41334   -198.7 9.830e+03 4.110e-10
 37.45288   -198.1 9.855e+03 4.186e-10
 37.49242   -197.8 9.998e+03 4.657e-10
 37.53195   -197.8 1.022e+04 5.395e-10
 37.57149   -197.9 1.054e+04 6.343e-10
 37.61102   -198.5 1.088e+04 7.706e-10
 37.65056   -199.5 1.114e+04 8.735e-10
 37.69010   -201.1 1.124e+04 9.131e-10
 37.72963   -203.0 1.116e+04 8.888e-10
 37.76917   -205.0 1.095e+04 8.015e-10
 37.79753   -206.9 1.082e+04 7.369e-10
 37.81730   -207.6 1.099e+04 7.763e-10
 37.83826   -209.1 1.070e+04 6.942e-10
 37.85793   -209.6 1.066e+04 6.912e-10
 37.87770   -210.7 1.060e+04 6.864e-10
 37.89747   -212.1 1.061e+04 6.946e-10
 37.91724   -214.6 1.080e+04 8.002e-10
 37.93005   -217.9 1.210e+04 1.233e-09
 37.93993   -218.5 1.240e+04 1.261e-09
 37.95678   -222.1 1.440e+04 2.477e-09
 37.97654   -224.9 1.565e+04 4.368e-09
 37.99631   -227.5 1.626e+04 6.100e-09
 38.01294   -230.1 1.637e+04 6.690e-09
 38.02282   -230.1 1.579e+04 5.407e-09
 38.03585   -232.8 1.573e+04 5.413e-09
 38.05287   -235.4 1.504e+04 4.310e-09
 38.06275   -234.5 1.589e+04 5.828e-09
 38.07538   -237.2 1.452e+04 3.163e-09
 38.09515   -240.6 1.265e+04 1.493e-09
 38.11492   -244.2 1.097e+04 7.789e-10
 38.13469   -247.1 1.043e+04 5.756e-10
 38.15446   -249.0 1.032e+04 5.331e-10
 38.17423   -250.5 1.034e+04 5.291e-10
 38.18558   -251.9 1.055e+04 5.673e-10
 38.19546   -252.7 1.091e+04 7.173e-10
 38.21376   -254.0 1.110e+04 8.074e-10
 38.23353   -255.0 1.114e+04 8.441e-10
 38.25330   -255.7 1.113e+04 8.476e-10
 38.27307   -256.1 1.096e+04 7.793e-10
 38.29284   -256.4 1.072e+04 6.342e-10
 38.30840   -256.5 1.049e+04 4.970e-10
 38.31828   -256.8 1.043e+04 4.623e-10
 38.33237   -256.8 1.031e+04 3.745e-10
 38.36212   -257.2 1.034e+04 3.324e-10
 38.40176   -258.3 1.031e+04 3.078e-10
 38.44129   -259.0 1.022e+04 2.879e-10
 38.48083   -259.2 1.016e+04 2.791e-10
 38.52037   -259.1 1.014e+04 2.810e-10
 38.55424   -258.7 1.019e+04 2.898e-10
 38.57401   -258.9 1.050e+04 3.569e-10
 38.59944   -258.3 1.060e+04 3.643e-10
 38.63898   -257.6 1.069e+04 3.645e-10
 38.67851   -256.8 1.077e+04 3.581e-10
 38.71805   -256.0 1.088e+04 3.530e-10
 38.75759   -255.0 1.100e+04 3.601e-10
 38.79712   -254.1 1.113e+04 3.776e-10
 38.81966   -253.2 1.117e+04 3.996e-10
 38.82945   -253.4 1.117e+04 4.063e-10
 38.84635   -253.2 1.116e+04 4.311e-10
 38.86612   -252.8 1.116e+04 4.585e-10
 38.88589   -252.4 1.117e+04 4.782e-10
 38.90565   -251.9 1.119e+04 4.905e-10
 38.92542   -251.3 1.121e+04 4.916e-10
 38.94229   -250.8 1.129e+04 4.790e-10
 38.95217   -250.9 1.145e+04 5.933e-10
 38.96496   -250.5 1.162e+04 6.288e-10
 38.98473   -250.3 1.182e+04 6.803e-10
 39.00450   -250.2 1.206e+04 7.569e-10
 39.02426   -250.1 1.231e+04 8.626e-10
 39.04403   -250.0 1.255e+04 9.901e-10
 39.06380   -249.9 1.274e+04 1.121e-09
 39.07499   -249.8 1.288e+04 1.228e-09
 39.08488   -250.0 1.359e+04 1.962e-09
 39.10334   -250.1 1.362e+04 1.986e-09
 39.12311   -250.2 1.359e+04 1.941e-09
 39.14287   -250.3 1.342e+04 1.730e-09
 39.16264   -250.4 1.317e+04 1.485e-09
 39.18241   -250.7 1.290e+04 1.273e-09
 39.19782   -251.0 1.263e+04 1.104e-09
 39.20770   -251.7 1.276e+04 1.191e-09
 39.22195   -251.9 1.244e+04 1.026e-09
 39.24172   -252.1 1.212e+04 9.004e-10
 39.26148   -252.1 1.184e+04 8.037e-10
 39.28125   -252.0 1.160e+04 7.295e-10
 39.30102   -251.6 1.142e+04 6.780e-10
 39.32064   -251.1 1.135e+04 6.508e-10
 39.33053   -251.7 1.129e+04 6.492e-10
 39.34056   -251.2 1.125e+04 6.337e-10
 39.36033   -250.8 1.124e+04 6.308e-10
 39.38009   -250.4 1.126e+04 6.331e-10
 39.39053   -250.0 1.134e+04 6.488e-10
 39.40042   -249.4 1.134e+04 6.368e-10
 39.41963   -249.2 1.145e+04 6.735e-10
 39.43940   -249.1 1.157e+04 7.103e-10
 39.45335   -249.0 1.170e+04 7.604e-10
 39.46323   -249.3 1.147e+04 6.904e-10
 39.47893   -249.2 1.154e+04 7.170e-10
 39.49870   -249.2 1.163e+04 7.509e-10
 39.51847   -249.4 1.171e+04 7.801e-10
 39.53824   -249.7 1.175e+04 7.989e-10
 39.55801   -250.0 1.176e+04 8.064e-10
 39.57617   -250.3 1.174e+04 8.114e-10
 39.58606   -249.8 1.141e+04 6.782e-10
 39.59754   -250.1 1.128e+04 6.397e-10
 39.61731   -250.1 1.114e+04 5.936e-10
 39.63708   -250.2 1.098e+04 5.378e-10
 39.65685   -250.2 1.083e+04 4.758e-10
 39.67662   -250.3 1.068e+04 4.159e-10
 39.70637   -250.5 1.052e+04 3.608e-10
 39.74600   -249.5 1.030e+04 3.074e-10
 39.78554   -248.3 1.011e+04 2.708e-10
 39.82202   -246.7 9.991e+03 2.514e-10
 39.84178   -246.1 9.967e+03 2.466e-10
 39.86461   -244.4 9.919e+03 2.378e-10
 39.90415   -242.6 9.893e+03 2.283e-10
 39.94369   -240.7 9.904e+03 2.168e-10
 39.98322   -238.9 9.910e+03 2.016e-10
 40.02276   -237.2 9.894e+03 1.834e-10
 40.06230   -235.5 9.870e+03 1.643e-10
 40.08743   -233.7 9.848e+03 1.470e-10
 40.10720   -233.5 9.833e+03 1.489e-10
 40.14137   -231.8 9.823e+03 1.355e-10
 40.18091   -230.3 9.799e+03 1.308e-10
 40.22044   -228.8 9.804e+03 1.306e-10
 40.25998   -227.7 9.867e+03 1.332e-10
 40.29952   -226.8 1.008e+04 1.634e-10
 40.33308   -226.1 1.030e+04 2.353e-10
 40.35285   -226.0 1.023e+04 2.216e-10
 40.37859   -225.3 1.039e+04 2.986e-10
 40.41813   -224.6 1.055e+04 3.742e-10
 40.45766   -223.9 1.068e+04 4.249e-10
 40.49720   -223.0 1.073e+04 4.395e-10
 40.53673   -221.9 1.073e+04 4.412e-10
 40.57627   -220.5 1.074e+04 4.109e-10
 40.59849   -219.0 1.073e+04 3.565e-10
 40.61826   -219.0 1.046e+04 2.613e-10
 40.65534   -217.4 1.046e+04 2.307e-10
 40.69488   -215.8 1.043e+04 2.050e-10
 40.73442   -214.0 1.041e+04 1.854e-10
 40.75844   -212.0 1.039e+04 1.694e-10
 40.77820   -211.7 1.045e+04 1.845e-10
 40.81349   -209.7 1.044e+04 1.742e-10
 40.84414   -207.6 1.042e+04 1.635e-10
 40.86391   -207.4 1.037e+04 1.481e-10
 40.89256   -205.2 1.037e+04 1.424e-10
 40.93210   -203.1 1.038e+04 1.351e-10
 40.97164   -201.0 1.041e+04 1.258e-10
 41.01117   -198.8 1.043e+04 1.156e-10
 41.05071   -196.6 1.044e+04 1.080e-10
 41.08979   -194.4 1.047e+04 1.032e-10
 41.10956   -194.3 1.042e+04 1.021e-10
 41.12978   -192.0 1.044e+04 9.922e-11
 41.16932   -189.7 1.046e+04 9.779e-11
 41.20886   -187.3 1.048e+04 9.749e-11
 41.24839   -185.0 1.052e+04 9.765e-11
 41.28793   -182.8 1.061e+04 9.813e-11
 41.32747   -180.8 1.086e+04 1.002e-10
 41.35520   -179.3 1.114e+04 1.216e-10
 41.37497   -179.4 1.101e+04 1.122e-10
 41.40654   -178.2 1.119e+04 1.757e-10
 41.44608   -177.3 1.158e+04 3.220e-10
 41.48561   -176.7 1.214e+04 5.945e-10
 41.52515   -176.6 1.271e+04 9.621e-10
 41.56469   -176.8 1.312e+04 1.243e-09
 41.60085   -178.3 1.322e+04 1.317e-09
 41.62062   -179.0 1.293e+04 1.053e-09
 41.64376   -180.3 1.283e+04 1.041e-09
 41.68330   -180.8 1.252e+04 8.627e-10
 41.72283   -181.0 1.224e+04 6.616e-10
 41.76237   -181.1 1.199e+04 5.054e-10
 41.80191   -180.6 1.175e+04 3.873e-10
 41.84144   -179.6 1.155e+04 3.010e-10
 41.86627   -178.5 1.145e+04 2.442e-10
 41.88604   -179.3 1.145e+04 2.461e-10
 41.92052   -178.3 1.146e+04 2.223e-10
 41.96005   -177.5 1.149e+04 2.185e-10
 41.99959   -177.4 1.154e+04 2.201e-10
 42.03913   -177.6 1.166e+04 2.699e-10
 42.07866   -178.0 1.179e+04 4.225e-10
 42.11191   -178.3 1.204e+04 6.612e-10
 42.13168   -179.1 1.188e+04 6.563e-10
 42.15774   -179.5 1.203e+04 8.524e-10
 42.19727   -179.9 1.207e+04 9.096e-10
 42.23681   -180.1 1.204e+04 8.692e-10
 42.26636   -179.5 1.197e+04 6.858e-10
 42.28604   -179.5 1.191e+04 6.319e-10
 42.31579   -180.1 1.177e+04 4.833e-10
 42.35542   -180.5 1.157e+04 3.701e-10
 42.37733   -180.7 1.145e+04 3.145e-10
 42.39710   -181.0 1.143e+04 3.023e-10
 42.43449   -180.9 1.135e+04 2.757e-10
 42.47403   -180.4 1.130e+04 2.564e-10
 42.51357   -179.8 1.124e+04 2.340e-10
 42.55310   -178.9 1.116e+04 2.080e-10
 42.59264   -177.8 1.107e+04 1.837e-10
 42.62298   -176.4 1.102e+04 1.641e-10
 42.64275   -176.4 1.097e+04 1.449e-10
 42.67171   -174.8 1.093e+04 1.316e-10
 42.71125   -173.1 1.090e+04 1.213e-10
 42.75079   -171.2 1.087e+04 1.133e-10
 42.79032   -169.2 1.083e+04 1.078e-10
 42.82986   -167.3 1.082e+04 1.049e-10
 42.86862   -165.7 1.082e+04 1.045e-10
 42.88839   -165.6 1.068e+04 8.543e-11
 42.90893   -164.0 1.074e+04 8.584e-11
 42.94847   -162.7 1.095e+04 1.225e-10
 42.98801   -161.4 1.121e+04 1.989e-10
 43.02754   -160.3 1.152e+04 3.213e-10
 43.06708   -159.4 1.185e+04 4.821e-10
 43.10662   -158.7 1.207e+04 6.445e-10
 43.13404   -158.0 1.216e+04 7.505e-10
 43.15381   -157.5 1.149e+04 4.058e-10
 43.18569   -156.6 1.160e+04 4.914e-10
 43.22523   -155.6 1.165e+04 5.253e-10
 43.26476   -154.5 1.164e+04 5.175e-10
 43.30430   -153.4 1.161e+04 4.749e-10
 43.34383   -152.2 1.158e+04 4.317e-10
 43.37969   -150.9 1.158e+04 4.007e-10
 43.39946   -150.7 1.137e+04 3.642e-10
 43.42291   -149.6 1.135e+04 3.618e-10
 43.46244   -148.6 1.149e+04 3.804e-10
 43.49385   -147.8 1.161e+04 4.603e-10
 43.51362   -147.8 1.175e+04 4.750e-10
 43.54152   -147.0 1.188e+04 6.067e-10
 43.58105   -146.5 1.199e+04 7.128e-10
 43.62059   -146.1 1.201e+04 7.454e-10
 43.64510   -145.8 1.197e+04 7.414e-10
 43.66487   -145.9 1.192e+04 7.517e-10
 43.69966   -145.3 1.160e+04 6.485e-10
 43.73920   -144.6 1.135e+04 5.315e-10
 43.77874   -143.9 1.125e+04 4.603e-10
 43.81827   -143.3 1.127e+04 4.354e-10
 43.85781   -142.8 1.133e+04 4.277e-10
 43.89075   -142.5 1.142e+04 4.262e-10
 43.91052   -142.5 1.134e+04 4.319e-10
 43.93688   -142.3 1.136e+04 4.459e-10
 43.97642   -142.1 1.132e+04 4.348e-10
 44.01596   -141.6 1.110e+04 4.051e-10
 44.05549   -140.8 1.087e+04 3.609e-10
 44.09503   -139.9 1.069e+04 3.200e-10
 44.13457   -138.9 1.059e+04 2.863e-10
 44.15617   -138.0 1.050e+04 2.573e-10
 44.17593   -137.8 1.034e+04 2.182e-10
 44.21364   -137.1 1.028e+04 1.919e-10
 44.25318   -136.4 1.026e+04 1.851e-10
 44.29271   -135.8 1.028e+04 1.878e-10
 44.33225   -135.3 1.037e+04 2.123e-10
 44.37179   -134.6 1.045e+04 2.405e-10
 44.40181   -133.9 1.050e+04 2.518e-10
 44.42158   -133.6 1.040e+04 2.469e-10
 44.45086   -132.7 1.040e+04 2.480e-10
 44.49040   -131.4 1.036e+04 2.154e-10
 44.52993   -129.9 1.032e+04 1.584e-10
 44.56947   -128.4 1.028e+04 1.115e-10
 44.60901   -126.8 1.029e+04 8.137e-11
 44.64746   -125.2 1.032e+04 6.480e-11
 44.66723   -124.8 1.028e+04 6.433e-11
 44.68808   -123.1 1.031e+04 5.613e-11
 44.72762   -121.3 1.031e+04 5.302e-11
 44.76715   -119.5 1.031e+04 5.233e-11
 44.80669   -117.7 1.032e+04 5.228e-11
 44.84623   -116.1 1.037e+04 5.564e-11
 44.88576   -114.4 1.039e+04 6.351e-11
 44.91288   -112.6 1.037e+04 7.329e-11
 44.93264   -112.2 1.032e+04 7.367e-11
 44.96484   -110.3 1.030e+04 8.155e-11
 45.00437   -108.4 1.025e+04 8.692e-11
 45.04391   -106.4 1.022e+04 8.833e-11
 45.08345   -104.2 1.016e+04 8.722e-11
 45.12298   -102.0 1.004e+04 7.586e-11
 45.15852    -99.7 9.975e+03 6.290e-11
 45.17829    -99.3 9.992e+03 6.428e-11
 45.20206    -97.1 9.953e+03 5.340e-11
 45.24159    -95.0 9.925e+03 4.505e-11
 45.28113    -92.9 9.880e+03 4.015e-11
 45.32067    -90.8 9.848e+03 3.746e-11
 45.36020    -88.7 9.806e+03 3.647e-11
 45.39974    -86.5 9.781e+03 3.630e-11
 45.42394    -84.5 9.695e+03 3.897e-11
 45.44371    -83.9 9.718e+03 3.492e-11
 45.47881    -81.9 9.644e+03 3.870e-11
 45.51835    -80.0 9.604e+03 4.662e-11
 45.55789    -78.1 9.567e+03 5.820e-11
 45.59742    -76.2 9.535e+03 7.172e-11
 45.63696    -74.3 9.495e+03 8.452e-11
 45.66959    -72.4 9.445e+03 9.269e-11
 45.68935    -72.0 9.491e+03 9.719e-11
 45.71603    -70.1 9.430e+03 1.029e-10
 45.75557    -68.1 9.401e+03 1.034e-10
 45.79511    -65.9 9.280e+03 9.632e-11
 45.83464    -63.8 9.257e+03 8.127e-11
 45.87418    -61.9 9.252e+03 6.584e-11
 45.91372    -60.0 9.235e+03 5.317e-11
 45.93500    -58.1 9.184e+03 4.447e-11
 45.95477    -57.6 9.188e+03 6.199e-11
 45.99279    -55.5 9.125e+03 5.311e-11
 46.03233    -53.4 9.045e+03 4.649e-11
 46.07186    -51.1 8.968e+03 4.080e-11
 46.11140    -48.8 8.921e+03 3.541e-11
 46.15094    -46.6 8.905e+03 3.084e-11
 46.18065    -44.5 8.914e+03 2.829e-11
 46.20042    -44.2 8.936e+03 3.947e-11
 46.22927    -42.2 8.947e+03 3.911e-11
 46.24904    -42.0 8.920e+03 3.066e-11
 46.26954    -40.1 8.918e+03 3.408e-11
 46.30908    -38.2 8.823e+03 4.102e-11
 46.34862    -35.8 8.745e+03 4.810e-11
 46.38815    -33.2 8.726e+03 5.069e-11
 46.42630    -30.8 8.658e+03 4.829e-11
 46.44606    -30.4 8.726e+03 5.740e-11
 46.46723    -28.2 8.772e+03 4.799e-11
 46.50676    -26.4 8.736e+03 4.320e-11
 46.54630    -24.3 8.682e+03 4.321e-11
 46.58584    -22.1 8.661e+03 4.389e-11
 46.62537    -20.0 8.725e+03 4.268e-11
 46.66491    -18.1 8.787e+03 4.292e-11
 46.69171    -16.4 8.837e+03 4.607e-11
 46.71148    -16.1 8.885e+03 5.381e-11
 46.74398    -14.7 8.993e+03 6.160e-11
 46.78352    -13.5 9.109e+03 8.085e-11
 46.82306    -12.2 9.193e+03 1.186e-10
 46.86259    -10.6 9.246e+03 1.716e-10
 46.90213     -8.8 9.306e+03 2.104e-10
 46.93736     -7.3 9.314e+03 2.088e-10
 46.95713     -7.0 9.241e+03 1.680e-10
 46.98120     -5.5 9.171e+03 1.439e-10
 47.02074     -4.2 9.121e+03 1.224e-10
 47.06028     -2.9 9.063e+03 1.109e-10
 47.09981     -1.5 9.005e+03 1.054e-10
 47.13935      0.3 8.940e+03 9.965e-11
 47.17889      2.1 8.888e+03 9.041e-11
 47.20277      3.9 8.855e+03 7.996e-11
 47.22254      4.1 8.888e+03 7.968e-11
 47.25796      5.7 8.870e+03 7.268e-11
 47.29750      7.5 8.861e+03 7.333e-11
 47.33703      9.2 8.877e+03 7.773e-11
 47.37657     10.9 8.922e+03 8.956e-11
 47.41611     12.8 9.005e+03 1.082e-10
 47.44842     14.6 9.139e+03 1.322e-10
 47.46819     14.7 9.216e+03 1.399e-10
 47.49518     16.2 9.430e+03 1.686e-10
 47.53472     17.0 9.817e+03 2.394e-10
 47.57425     17.4 1.039e+04 4.392e-10
 47.61379     17.8 1.131e+04 9.008e-10
 47.65333     17.4 1.241e+04 1.588e-09
 47.68288     16.4 1.311e+04 2.152e-09
 47.70255     15.8 1.342e+04 2.464e-09
 47.71364     14.9 1.369e+04 2.639e-09
 47.72353     14.1 1.354e+04 2.379e-09
 47.74209     12.3 1.380e+04 2.588e-09
 47.76186     10.6 1.395e+04 2.842e-09
 47.78163      9.2 1.375e+04 2.928e-09
 47.80139      9.3 1.328e+04 2.463e-09
 47.82116      9.1 1.278e+04 2.011e-09
 47.85091      8.4 1.163e+04 9.946e-10
 47.89055      7.5 1.093e+04 5.709e-10
 47.93008      6.4 9.896e+03 3.042e-10
 47.95948      5.9 9.285e+03 2.258e-10
 47.97925      6.0 8.933e+03 1.648e-10
 48.00916      7.1 8.695e+03 1.454e-10
 48.04869      8.5 8.506e+03 1.123e-10
 48.08823      9.6 8.345e+03 8.537e-11
 48.12777     10.6 8.355e+03 7.927e-11
 48.16730     11.5 8.414e+03 8.410e-11
 48.20513     12.0 8.621e+03 1.180e-10
 48.22490     12.4 8.608e+03 1.173e-10
 48.24638     13.2 8.977e+03 2.218e-10
 48.28591     14.4 9.421e+03 3.851e-10
 48.32545     15.5 9.583e+03 4.360e-10
 48.36499     16.8 9.394e+03 3.772e-10
 48.40452     18.3 8.980e+03 2.316e-10
 48.44406     19.3 8.647e+03 1.119e-10
 48.47055     19.4 8.412e+03 5.824e-11
 48.49032     20.1 8.320e+03 5.004e-11
 48.52313     20.6 7.959e+03 4.148e-11
 48.56267     22.0 7.888e+03 4.039e-11
 48.60221     23.8 7.873e+03 4.026e-11
 48.64174     25.7 7.882e+03 4.020e-11
 48.68128     27.6 7.910e+03 4.061e-11
 48.71619     29.2 7.970e+03 4.225e-11
 48.73596     30.0 7.955e+03 4.175e-11
 48.76035     31.7 8.017e+03 4.615e-11
 48.79989     33.3 8.080e+03 5.306e-11
 48.83943     34.9 8.153e+03 6.077e-11
 48.87896     36.5 8.233e+03 6.756e-11
 48.91850     37.9 8.329e+03 7.371e-11
 48.95804     39.2 8.416e+03 7.727e-11
 48.98161     40.3 8.520e+03 7.802e-11
 48.98826     40.9 8.706e+03 1.142e-10
 49.00423     40.8 8.678e+03 9.531e-11
 49.03711     41.4 8.796e+03 9.600e-11
 49.07665     41.8 8.834e+03 9.632e-11
 49.11618     42.1 8.840e+03 9.697e-11
 49.15572     42.6 8.802e+03 1.007e-10
 49.19525     43.1 8.814e+03 1.062e-10
 49.22726     43.3 8.992e+03 1.128e-10
 49.24703     42.4 9.325e+03 1.514e-10
 49.27433     42.3 9.382e+03 1.747e-10
 49.31386     42.4 9.423e+03 2.003e-10
 49.35340     42.7 9.483e+03 2.233e-10
 49.39294     43.0 9.552e+03 2.390e-10
 49.43247     43.5 9.622e+03 2.450e-10
 49.47201     43.9 9.704e+03 2.518e-10
 49.49267     44.1 9.903e+03 2.668e-10
 49.51244     43.2 1.003e+04 2.736e-10
 49.55108     43.3 1.027e+04 3.364e-10
 49.59062     43.6 1.064e+04 4.704e-10
 49.63016     43.7 1.090e+04 5.914e-10
 49.66969     43.6 1.088e+04 5.880e-10
 49.70923     43.8 1.067e+04 5.061e-10
 49.73832     44.2 1.026e+04 3.434e-10
 49.75809     43.9 1.045e+04 4.222e-10
 49.78830     44.6 9.984e+03 2.264e-10
 49.82784     45.0 9.648e+03 1.246e-10
 49.86738     45.5 9.342e+03 1.029e-10
 49.90691     46.8 9.289e+03 1.028e-10
 49.94645     48.3 9.283e+03 1.048e-10
 49.98397     49.9 9.287e+03 1.105e-10
 50.00374     49.9 9.321e+03 1.047e-10
 50.02552     51.5 9.341e+03 1.113e-10
 50.06506     53.1 9.380e+03 1.163e-10
 50.10460     54.6 9.404e+03 1.177e-10
 50.14413     56.1 9.425e+03 1.163e-10
 50.18367     57.6 9.447e+03 1.146e-10
 50.22321     59.0 9.465e+03 1.163e-10
 50.24938     60.4 9.517e+03 1.229e-10
 50.26915     60.5 9.542e+03 1.093e-10
 50.30228     61.7 9.644e+03 1.341e-10
 50.34182     63.0 9.795e+03 1.771e-10
 50.38135     64.2 9.988e+03 2.366e-10
 50.42089     65.1 1.021e+04 3.069e-10
 50.46043     65.8 1.045e+04 3.670e-10
 50.49503     66.2 1.065e+04 3.787e-10
 50.51480     66.6 1.049e+04 3.007e-10
 50.53950     67.0 1.051e+04 3.006e-10
 50.57904     67.6 1.053e+04 2.868e-10
 50.61857     68.4 1.050e+04 2.441e-10
 50.65811     69.5 1.044e+04 1.932e-10
 50.69765     70.6 1.039e+04 1.498e-10
 50.73718     71.7 1.037e+04 1.243e-10
 50.76045     73.0 1.039e+04 1.201e-10
 50.78021     73.1 1.058e+04 1.344e-10
 50.81626     74.2 1.066e+04 1.454e-10
 50.85579     75.2 1.078e+04 1.731e-10
 50.89533     76.3 1.091e+04 2.175e-10
 50.93487     77.4 1.104e+04 2.753e-10
 50.97440     78.7 1.116e+04 3.322e-10
 51.00609     80.1 1.130e+04 3.805e-10
 51.02586     79.3 1.146e+04 4.325e-10
 51.05348     80.5 1.155e+04 4.128e-10
 51.09301     81.6 1.160e+04 3.865e-10
 51.13255     82.8 1.161e+04 3.877e-10
 51.17209     84.1 1.165e+04 4.063e-10
 51.21162     85.4 1.186e+04 4.890e-10
 51.25116     86.6 1.218e+04 6.157e-10
 51.27141     86.3 1.228e+04 6.871e-10
 51.28120     85.8 1.206e+04 5.291e-10
 51.30038     86.0 1.213e+04 5.941e-10
 51.32015     86.2 1.214e+04 6.425e-10
 51.33992     86.5 1.214e+04 6.710e-10
 51.35969     86.8 1.214e+04 6.698e-10
 51.37946     87.0 1.217e+04 6.576e-10
 51.39414     86.9 1.223e+04 6.488e-10
 51.40402     86.8 1.210e+04 5.843e-10
 51.41899     86.6 1.224e+04 6.320e-10
 51.43876     86.3 1.236e+04 7.276e-10
 51.45853     86.0 1.246e+04 8.929e-10
 51.47830     86.0 1.257e+04 1.110e-09
 51.49807     86.0 1.266e+04 1.270e-09
 51.51696     86.0 1.269e+04 1.277e-09
 51.52685     86.1 1.281e+04 1.468e-09
 51.53760     86.0 1.278e+04 1.415e-09
 51.55737     85.7 1.266e+04 1.233e-09
 51.57714     85.0 1.248e+04 9.925e-10
 51.59691     83.7 1.222e+04 7.960e-10
 51.61668     81.9 1.194e+04 7.282e-10
 51.63645     80.1 1.192e+04 7.372e-10
 51.64967     78.0 1.199e+04 8.138e-10
 51.65955     78.0 1.186e+04 7.329e-10
 51.67598     75.7 1.212e+04 9.096e-10
 51.69575     73.0 1.272e+04 1.311e-09
 51.71552     70.1 1.351e+04 2.082e-09
 51.72956     67.4 1.434e+04 3.431e-09
 51.73945     67.4 1.447e+04 3.586e-09
 51.75506     65.5 1.510e+04 5.359e-09
 51.77249     63.8 1.539e+04 5.942e-09
 51.78238     64.2 1.541e+04 6.020e-09
 51.79459     62.3 1.538e+04 5.845e-09
 51.81436     60.8 1.491e+04 4.893e-09
 51.83413     59.7 1.400e+04 3.362e-09
 51.85390     58.5 1.288e+04 1.992e-09
 51.88365     57.2 1.194e+04 1.207e-09
 51.92328     55.8 1.095e+04 7.499e-10
 51.96282     55.3 1.084e+04 6.561e-10
 52.00235     54.8 1.077e+04 6.263e-10
 52.02822     54.3 1.066e+04 5.823e-10
 52.04799     55.2 1.100e+04 6.955e-10
 52.08143     54.7 1.070e+04 5.469e-10
 52.12096     54.3 1.035e+04 4.197e-10
 52.16050     54.1 1.009e+04 3.337e-10
 52.20004     54.1 1.004e+04 3.215e-10
 52.23957     54.3 1.007e+04 3.291e-10
 52.27387     54.7 1.014e+04 3.627e-10
 52.29363     54.9 1.031e+04 4.290e-10
 52.31865     55.2 1.035e+04 4.540e-10
 52.35818     55.5 1.031e+04 4.410e-10
 52.39772     55.7 1.013e+04 3.800e-10
 52.43726     55.8 9.873e+03 2.950e-10
 52.47679     55.7 9.686e+03 2.590e-10
 52.51633     55.7 9.698e+03 2.651e-10
 52.53928     56.0 9.812e+03 3.067e-10
 52.55905     55.5 9.949e+03 3.503e-10
 52.59540     56.1 9.983e+03 3.751e-10
 52.63494     57.0 9.938e+03 3.603e-10
 52.67448     57.8 9.789e+03 3.129e-10
 52.71401     58.6 9.587e+03 2.524e-10
 52.75355     59.3 9.388e+03 2.171e-10
 52.78493     60.3 9.411e+03 2.246e-10
 52.80470     59.5 9.634e+03 2.678e-10
 52.83262     60.7 9.789e+03 3.211e-10
 52.87216     61.9 9.994e+03 3.961e-10
 52.91170     63.3 1.023e+04 4.740e-10
 52.94125     63.7 1.033e+04 5.180e-10
 52.96092     64.0 1.040e+04 5.462e-10
 52.98069     64.6 1.046e+04 5.665e-10
 53.00046     65.0 1.047e+04 5.633e-10
 53.02023     65.4 1.047e+04 5.485e-10
 53.04000     65.7 1.049e+04 5.239e-10
 53.05015     65.7 1.053e+04 5.184e-10
 53.06003     65.0 1.035e+04 4.350e-10
 53.07953     64.9 1.041e+04 4.377e-10
 53.09727     64.5 1.059e+04 4.588e-10
 53.10716     64.7 1.044e+04 4.254e-10
 53.11907     63.7 1.087e+04 4.935e-10
 53.13884     61.3 1.173e+04 7.646e-10
 53.15861     59.1 1.262e+04 1.433e-09
 53.17297     58.0 1.327e+04 2.539e-09
 53.18286     57.9 1.319e+04 2.603e-09
 53.19814     57.6 1.354e+04 3.197e-09
 53.21791     57.1 1.352e+04 3.071e-09
 53.23768     56.4 1.325e+04 2.474e-09
 53.25745     55.0 1.277e+04 1.563e-09
 53.27722     52.5 1.207e+04 9.050e-10
 53.29580     49.5 1.112e+04 6.454e-10
 53.30568     50.0 1.109e+04 6.412e-10
 53.31675     48.4 1.074e+04 6.202e-10
 53.33652     47.8 1.077e+04 6.407e-10
 53.35629     47.5 1.094e+04 7.275e-10
 53.37606     47.1 1.121e+04 8.821e-10
 53.39583     46.8 1.152e+04 1.114e-09
 53.41559     46.7 1.188e+04 1.393e-09
 53.42850     46.8 1.222e+04 1.594e-09
 53.43839     47.4 1.221e+04 1.579e-09
 53.46511     46.5 1.239e+04 1.633e-09
 53.50475     46.0 1.193e+04 1.251e-09
 53.54164     46.2 1.115e+04 7.236e-10
 53.56141     47.4 1.154e+04 9.395e-10
 53.58382     47.6 1.072e+04 4.554e-10
 53.62336     47.2 9.984e+03 2.044e-10
 53.66289     46.9 9.652e+03 1.506e-10
 53.70243     47.1 9.681e+03 1.596e-10
 53.74197     47.1 9.969e+03 2.205e-10
 53.78150     47.3 1.051e+04 3.689e-10
 53.80705     47.6 1.071e+04 5.097e-10
 53.82682     47.7 1.165e+04 1.040e-09
 53.85059     48.2 1.135e+04 8.619e-10
 53.87026     48.2 1.129e+04 8.251e-10
 53.89003     48.6 1.095e+04 6.105e-10
 53.90980     48.6 1.085e+04 5.541e-10
 53.93955     48.2 1.045e+04 3.773e-10
 53.97919     47.9 1.020e+04 2.780e-10
 54.01872     48.1 1.011e+04 2.625e-10
 54.05270     48.7 1.013e+04 2.607e-10
 54.07247     48.4 1.004e+04 2.241e-10
 54.09780     49.3 1.009e+04 2.251e-10
 54.13733     50.2 1.016e+04 2.237e-10
 54.17687     51.1 1.022e+04 2.128e-10
 54.21641     51.9 1.022e+04 2.000e-10
 54.25594     52.8 1.021e+04 2.013e-10
 54.29548     53.8 1.020e+04 2.130e-10
 54.31812     54.9 1.023e+04 2.468e-10
 54.33789     55.3 1.031e+04 2.771e-10
 54.37455     56.6 1.034e+04 3.001e-10
 54.41409     58.0 1.038e+04 3.056e-10
 54.45363     59.4 1.036e+04 2.921e-10
 54.47506     60.7 1.034e+04 2.660e-10
 54.49483     60.5 1.009e+04 1.792e-10
 54.53270     61.8 1.007e+04 1.534e-10
 54.56376     63.2 1.004e+04 1.310e-10
 54.58353     63.8 9.958e+03 1.102e-10
 54.61177     65.4 9.920e+03 9.630e-11
 54.65131     67.0 9.880e+03 8.410e-11
 54.69085     68.6 9.838e+03 7.432e-11
 54.73038     70.3 9.780e+03 6.800e-11
 54.76992     72.1 9.684e+03 6.552e-11
 54.80941     74.0 9.621e+03 6.492e-11
 54.84895     76.7 9.579e+03 6.483e-11
 54.88853     78.7 9.558e+03 6.683e-11
 54.92806     80.8 9.552e+03 6.949e-11
 54.96760     82.9 9.543e+03 7.221e-11
 55.00714     85.1 9.537e+03 7.465e-11
 55.04667     87.3 9.536e+03 7.772e-11
 55.07483     89.5 9.582e+03 8.302e-11
 55.09460     90.0 9.514e+03 8.102e-11
 55.12575     92.2 9.557e+03 8.503e-11
 55.16528     94.5 9.579e+03 9.165e-11
 55.20482     96.7 9.601e+03 1.017e-10
 55.24436     99.0 9.639e+03 1.131e-10
 55.28389    101.2 9.668e+03 1.249e-10
 55.32047    103.4 9.691e+03 1.361e-10
 55.34024    103.6 9.582e+03 1.127e-10
 55.36297    105.8 9.601e+03 1.226e-10
 55.40250    107.9 9.630e+03 1.335e-10
 55.44204    110.0 9.661e+03 1.469e-10
 55.48158    112.1 9.702e+03 1.648e-10
 55.52111    114.3 9.785e+03 1.908e-10
 55.56065    116.4 9.936e+03 2.284e-10
 55.58589    118.6 1.016e+04 2.819e-10
 55.60566    118.7 9.899e+03 2.188e-10
 55.63972    120.8 1.008e+04 2.642e-10
 55.67926    122.8 1.029e+04 3.249e-10
 55.71880    124.3 1.043e+04 3.790e-10
 55.74835    125.6 1.048e+04 4.128e-10
 55.76802    126.6 1.060e+04 4.563e-10
 55.78779    127.5 1.078e+04 5.228e-10
 55.80756    128.2 1.103e+04 6.300e-10
 55.82733    128.8 1.133e+04 7.689e-10
 55.84123    129.3 1.165e+04 9.442e-10
 55.84659    129.3 1.119e+04 7.357e-10
 55.85246    129.6 1.139e+04 8.148e-10
 55.86686    129.9 1.167e+04 9.828e-10
 55.88663    130.2 1.196e+04 1.175e-09
 55.91638    130.4 1.194e+04 1.152e-09
 55.95602    130.5 1.205e+04 1.209e-09
 55.99555    130.5 1.198e+04 1.156e-09
 56.02511    130.6 1.172e+04 1.032e-09
 56.04478    130.9 1.148e+04 8.942e-10
 56.06455    131.2 1.126e+04 7.623e-10
 56.08432    131.4 1.109e+04 6.572e-10
 56.09676    131.5 1.097e+04 5.858e-10
 56.10664    131.8 1.099e+04 6.284e-10
 56.12385    132.0 1.092e+04 5.969e-10
 56.14362    132.3 1.086e+04 5.785e-10
 56.16339    132.6 1.079e+04 5.711e-10
 56.18316    133.1 1.076e+04 5.707e-10
 56.20293    133.8 1.075e+04 5.749e-10
 56.21958    134.6 1.075e+04 5.912e-10
 56.22947    134.9 1.072e+04 5.961e-10
 56.24246    135.8 1.072e+04 6.158e-10
 56.26223    136.9 1.076e+04 6.510e-10
 56.28200    138.0 1.086e+04 7.054e-10
 56.30177    139.2 1.104e+04 7.838e-10
 56.32154    140.5 1.125e+04 8.941e-10
 56.34130    141.7 1.143e+04 1.062e-09
 56.35229    142.7 1.195e+04 1.397e-09
 56.36217    143.5 1.140e+04 1.023e-09
 56.38084    144.8 1.232e+04 1.424e-09
 56.40061    146.6 1.375e+04 2.280e-09
 56.42038    147.9 1.485e+04 3.312e-09
 56.43515    148.8 1.530e+04 3.673e-09
 56.44499    149.1 1.601e+04 4.280e-09
 56.45487    149.1 1.770e+04 5.816e-09
 56.46476    148.4 2.044e+04 8.757e-09
 56.47464    146.9 2.299e+04 1.611e-08
 56.47996    145.1 2.369e+04 4.196e-08
 56.48490    144.4 2.463e+04 2.394e-08
 56.49441    142.4 2.386e+04 8.513e-08
 56.50429    140.9 2.253e+04 2.652e-07
 56.51418    138.8 2.138e+04 6.742e-07
 56.52406    135.4 2.101e+04 1.089e-06
 56.53127    130.9 2.115e+04 1.083e-06
 56.53621    130.1 2.136e+04 1.097e-06
 56.54137    125.3 2.176e+04 8.692e-07
 56.54631    124.5 2.343e+04 3.098e-07
 56.55372    121.2 2.421e+04 2.028e-07
 56.56360    118.4 2.563e+04 8.599e-08
 56.57348    114.9 2.697e+04 2.641e-08
 56.58337    110.1 2.665e+04 7.893e-09
 56.59789    102.6 1.806e+04 2.431e-09
 56.60782    107.3 2.229e+04 8.998e-09
 56.61806    101.8 1.639e+04 4.200e-09
 56.63783     99.6 1.430e+04 2.974e-09
 56.65760     99.4 1.389e+04 2.440e-09
 56.67737     99.5 1.376e+04 2.053e-09
 56.69713     99.6 1.340e+04 1.804e-09
 56.71690     99.8 1.296e+04 1.673e-09
 56.73064    100.3 1.265e+04 1.603e-09
 56.74053    100.7 1.319e+04 2.214e-09
 56.75644    101.1 1.282e+04 2.013e-09
 56.77621    101.8 1.259e+04 1.823e-09
 56.79597    102.6 1.242e+04 1.642e-09
 56.81574    103.4 1.219e+04 1.406e-09
 56.83551    103.7 1.211e+04 1.307e-09
 56.85357    105.6 1.173e+04 1.107e-09
 56.87343    106.0 1.159e+04 1.194e-09
 56.90490    107.9 1.114e+04 9.861e-10
 56.94443    110.0 1.081e+04 8.310e-10
 56.98397    112.1 1.062e+04 7.250e-10
 57.02351    114.2 1.052e+04 6.449e-10
 57.06304    116.4 1.045e+04 5.762e-10
 57.09931    118.5 1.038e+04 5.240e-10
 57.11908    119.7 1.007e+04 5.509e-10
 57.14212    121.9 1.009e+04 5.281e-10
 57.18165    124.1 1.015e+04 5.367e-10
 57.21048    126.1 1.036e+04 5.776e-10
 57.23025    126.4 1.054e+04 5.844e-10
 57.26073    128.3 1.132e+04 8.121e-10
 57.30026    130.1 1.202e+04 1.204e-09
 57.32982    130.5 1.223e+04 1.474e-09
 57.34949    130.8 1.252e+04 1.792e-09
 57.36453    131.1 1.293e+04 2.297e-09
 57.37442    132.5 1.268e+04 1.533e-09
 57.38902    132.7 1.300e+04 1.983e-09
 57.40879    133.0 1.319e+04 2.452e-09
 57.42856    133.4 1.318e+04 2.671e-09
 57.44833    133.7 1.315e+04 2.659e-09
 57.46810    134.1 1.305e+04 2.566e-09
 57.48735    134.2 1.287e+04 2.288e-09
 57.49724    134.6 1.264e+04 2.030e-09
 57.50763    134.5 1.259e+04 1.929e-09
 57.53738    134.4 1.245e+04 1.641e-09
 57.57702    134.7 1.245e+04 1.376e-09
 57.61037    134.4 1.253e+04 1.232e-09
 57.63004    135.3 1.286e+04 1.472e-09
 57.64601    134.5 1.274e+04 1.340e-09
 57.66578    133.4 1.260e+04 1.312e-09
 57.68555    131.9 1.259e+04 1.321e-09
 57.70532    129.9 1.268e+04 1.394e-09
 57.72509    127.2 1.304e+04 1.686e-09
 57.74289    124.2 1.385e+04 2.310e-09
 57.75277    122.4 1.528e+04 3.527e-09
 57.76462    118.9 1.706e+04 6.235e-09
 57.78439    116.1 1.860e+04 1.009e-08
 57.80416    113.2 1.917e+04 1.259e-08
 57.82393    110.3 1.913e+04 1.212e-08
 57.84370    108.0 1.863e+04 9.897e-09
 57.86346    105.9 1.782e+04 6.673e-09
 57.87559    103.6 1.692e+04 4.127e-09
 57.88548    100.4 1.805e+04 4.848e-09
 57.90300     97.6 1.627e+04 3.373e-09
 57.92277     96.3 1.495e+04 2.729e-09
 57.94254     96.1 1.437e+04 2.380e-09
 57.96231     96.1 1.408e+04 2.067e-09
 57.98207     96.2 1.371e+04 1.735e-09
 57.99842     96.2 1.317e+04 1.455e-09
 58.00830     96.1 1.353e+04 2.355e-09
 58.02161     96.1 1.311e+04 1.831e-09
 58.05136     95.7 1.224e+04 1.066e-09
 58.09099     95.3 1.115e+04 6.007e-10
 58.12144     94.7 1.035e+04 3.180e-10
 58.14120     93.9 1.058e+04 2.832e-10
 58.17007     92.3 1.024e+04 2.159e-10
 58.20960     91.3 1.021e+04 2.227e-10
 58.24914     90.3 1.031e+04 2.852e-10
 58.28868     89.3 1.078e+04 4.776e-10
 58.32821     88.4 1.105e+04 6.646e-10
 58.36708     87.9 1.101e+04 6.665e-10
 58.38685     86.3 1.136e+04 8.896e-10
 58.40729     86.6 1.083e+04 6.313e-10
 58.44682     87.2 1.018e+04 3.291e-10
 58.48636     87.6 9.540e+03 1.556e-10
 58.52590     88.1 9.029e+03 9.629e-11
 58.56543     89.4 8.856e+03 8.738e-11
 58.60497     91.3 8.797e+03 8.448e-11
 58.63250     93.4 8.775e+03 8.148e-11
 58.65227     92.9 8.837e+03 8.146e-11
 58.68404     95.1 8.818e+03 7.668e-11
 58.72358     97.2 8.771e+03 7.029e-11
 58.76312     99.2 8.697e+03 6.404e-11
 58.80265    101.3 8.605e+03 6.069e-11
 58.84219    103.4 8.579e+03 6.059e-11
 58.87815    105.6 8.576e+03 6.128e-11
 58.89791    105.6 8.795e+03 6.346e-11
 58.92126    107.8 8.804e+03 6.565e-11
 58.96080    110.0 8.862e+03 7.094e-11
 59.00034    112.2 8.932e+03 8.030e-11
 59.03987    114.4 8.979e+03 9.457e-11
 59.07941    116.6 9.041e+03 1.135e-10
 59.11895    118.8 9.135e+03 1.369e-10
 59.14356    121.1 9.259e+03 1.641e-10
 59.16333    121.6 9.386e+03 2.186e-10
 59.19802    123.9 9.569e+03 2.614e-10
 59.23756    126.0 9.789e+03 3.116e-10
 59.27709    127.8 1.007e+04 3.827e-10
 59.31663    129.4 1.045e+04 4.961e-10
 59.35617    130.7 1.095e+04 6.764e-10
 59.38921    131.5 1.148e+04 9.236e-10
 59.40898    132.2 1.205e+04 1.346e-09
 59.43524    132.4 1.234e+04 1.457e-09
 59.47478    132.3 1.232e+04 1.408e-09
 59.51431    132.2 1.209e+04 1.162e-09
 59.55385    132.3 1.157e+04 7.089e-10
 59.59339    132.1 1.083e+04 3.308e-10
 59.63292    131.2 9.930e+03 1.679e-10
 59.65462    130.9 9.675e+03 1.554e-10
 59.67439    131.2 9.436e+03 1.370e-10
 59.71200    131.4 9.431e+03 1.415e-10
 59.75153    131.4 9.572e+03 1.742e-10
 59.79107    131.4 9.924e+03 2.582e-10
 59.83061    131.0 1.054e+04 4.307e-10
 59.87014    130.5 1.157e+04 8.034e-10
 59.90027    130.0 1.255e+04 1.386e-09
 59.92004    130.7 1.195e+04 1.080e-09
 59.94590    129.7 1.244e+04 1.262e-09
 59.96566    128.6 1.254e+04 1.272e-09
 59.98875    127.2 1.245e+04 1.184e-09
 60.01831    126.4 1.231e+04 1.097e-09
 60.03278    125.9 1.208e+04 9.559e-10
 60.04267    126.1 1.201e+04 9.355e-10
 60.05775    125.6 1.167e+04 7.505e-10
 60.07751    125.1 1.138e+04 5.783e-10
 60.09728    124.2 1.123e+04 4.523e-10
 60.11705    123.4 1.128e+04 4.161e-10
 60.13682    122.7 1.128e+04 4.182e-10
 60.15561    122.1 1.133e+04 4.345e-10
 60.16549    122.5 1.143e+04 4.822e-10
 60.17636    122.0 1.150e+04 5.357e-10
 60.19612    121.5 1.164e+04 6.370e-10
 60.21589    121.1 1.184e+04 7.815e-10
 60.23566    120.7 1.214e+04 9.578e-10
 60.25543    120.2 1.237e+04 1.181e-09
 60.27520    119.6 1.267e+04 1.394e-09
 60.28832    118.9 1.293e+04 1.564e-09
 60.29820    119.3 1.303e+04 1.666e-09
 60.31473    118.2 1.328e+04 1.758e-09
 60.33450    116.6 1.347e+04 1.815e-09
 60.35427    114.5 1.368e+04 1.892e-09
 60.37404    111.9 1.395e+04 1.989e-09
 60.39381    109.0 1.421e+04 2.252e-09
 60.41114    106.3 1.442e+04 2.708e-09
 60.42102    106.4 1.414e+04 2.911e-09
 60.43334    104.2 1.412e+04 3.038e-09
 60.45311    102.5 1.405e+04 2.928e-09
 60.47288    101.2 1.388e+04 2.599e-09
 60.49265     99.8 1.366e+04 2.128e-09
 60.51242     98.5 1.340e+04 1.758e-09
 60.54217     96.7 1.280e+04 1.270e-09
 60.58180     94.9 1.233e+04 9.849e-10
 60.62134     94.0 1.214e+04 9.181e-10
 60.65698     94.0 1.204e+04 9.140e-10
 60.67675     93.8 1.233e+04 1.077e-09
 60.70041     94.1 1.209e+04 9.891e-10
 60.73995     94.9 1.173e+04 8.159e-10
 60.77948     96.0 1.140e+04 6.564e-10
 60.81902     97.4 1.104e+04 4.903e-10
 60.85856     98.9 1.072e+04 3.542e-10
 60.89809    100.7 1.048e+04 2.534e-10
 60.92240    102.5 1.031e+04 1.831e-10
 60.94217    102.7 1.038e+04 2.015e-10
 60.97717    104.7 1.031e+04 1.672e-10
 61.01670    106.7 1.032e+04 1.379e-10
 61.05624    108.8 1.031e+04 1.175e-10
 61.09578    110.9 1.025e+04 1.058e-10
 61.13531    113.0 1.017e+04 9.999e-11
 61.16804    115.2 1.008e+04 9.682e-11
 61.18781    115.6 1.020e+04 1.462e-10
 61.21439    117.8 1.014e+04 1.326e-10
 61.25392    120.0 1.005e+04 1.232e-10
 61.29346    122.2 9.999e+03 1.228e-10
 61.33300    124.5 9.977e+03 1.266e-10
 61.37253    126.7 9.954e+03 1.431e-10
 61.41207    129.0 1.008e+04 1.786e-10
 61.43346    131.3 1.035e+04 2.345e-10
 61.45323    131.0 1.064e+04 3.146e-10
 61.48116    132.3 1.064e+04 3.292e-10
 61.50083    133.0 1.064e+04 3.343e-10
 61.52060    134.1 1.062e+04 3.519e-10
 61.54037    135.0 1.066e+04 3.854e-10
 61.55609    136.1 1.076e+04 4.445e-10
 61.56597    136.1 1.083e+04 5.108e-10
 61.57991    137.0 1.107e+04 6.229e-10
 61.59967    137.8 1.150e+04 7.806e-10
 61.61944    138.0 1.212e+04 1.021e-09
 61.63921    137.7 1.288e+04 1.411e-09
 61.65898    137.3 1.367e+04 2.041e-09
 61.67875    136.9 1.435e+04 2.972e-09
 61.68880    136.8 1.485e+04 4.103e-09
 61.69868    136.7 1.490e+04 4.772e-09
 61.71828    136.8 1.521e+04 5.366e-09
 61.73805    136.8 1.523e+04 5.281e-09
 61.75782    136.6 1.503e+04 4.765e-09
 61.77759    136.4 1.467e+04 3.839e-09
 61.79736    135.8 1.410e+04 2.724e-09
 61.81162    135.0 1.337e+04 1.832e-09
 61.82150    134.3 1.320e+04 1.570e-09
 61.84688    132.6 1.207e+04 9.060e-10
 61.88651    130.8 1.066e+04 4.563e-10
 61.92476    130.1 9.905e+03 2.628e-10
 61.94452    129.6 1.028e+04 3.223e-10
 61.96558    129.4 9.899e+03 2.145e-10
 62.00512    129.3 9.704e+03 1.877e-10
 62.04466    129.4 9.692e+03 1.894e-10
 62.08419    129.3 9.713e+03 2.046e-10
 62.12373    129.2 9.905e+03 2.499e-10
 62.15328    128.6 1.001e+04 2.918e-10
 62.17296    128.0 1.020e+04 3.621e-10
 62.18998    127.1 1.060e+04 4.910e-10
 62.19986    126.0 1.128e+04 7.634e-10
 62.21249    124.9 1.175e+04 1.039e-09
 62.23226    123.9 1.192e+04 1.193e-09
 62.25203    122.6 1.188e+04 1.183e-09
 62.27180    121.5 1.167e+04 1.092e-09
 62.29157    120.5 1.131e+04 8.830e-10
 62.31133    119.2 1.099e+04 6.463e-10
 62.32268    117.4 1.075e+04 4.614e-10
 62.33257    115.5 1.069e+04 3.939e-10
 62.35087    113.0 1.029e+04 3.802e-10
 62.37064    111.8 1.005e+04 3.787e-10
 62.40039    111.4 1.011e+04 4.112e-10
 62.43582    111.0 1.021e+04 5.278e-10
 62.45559    109.7 1.019e+04 5.718e-10
 62.47956    109.6 1.044e+04 6.857e-10
 62.51910    109.5 1.053e+04 7.107e-10
 62.55863    109.3 1.049e+04 6.866e-10
 62.59817    109.3 1.040e+04 6.284e-10
 62.63771    109.6 1.025e+04 5.483e-10
 62.67724    110.3 1.009e+04 4.658e-10
 62.70108    111.2 9.939e+03 3.967e-10
 62.72085    111.7 1.044e+04 6.133e-10
 62.75632    112.9 1.032e+04 5.669e-10
 62.79585    114.3 1.019e+04 5.169e-10
 62.83539    115.9 1.009e+04 4.658e-10
 62.87493    117.6 1.005e+04 4.370e-10
 62.91446    119.3 1.005e+04 4.334e-10
 62.94688    121.2 1.010e+04 4.423e-10
 62.96665    121.2 1.031e+04 5.275e-10
 62.99354    122.9 1.028e+04 5.133e-10
 63.03307    124.7 1.016e+04 4.620e-10
 63.07261    126.5 9.960e+03 3.910e-10
 63.11215    128.3 9.733e+03 3.223e-10
 63.15168    130.1 9.526e+03 2.709e-10
 63.19122    131.8 9.365e+03 2.367e-10
 63.21230    133.6 9.352e+03 2.275e-10
 63.23206    133.1 9.578e+03 2.678e-10
 63.27029    134.7 9.708e+03 3.001e-10
 63.30983    136.3 9.882e+03 3.552e-10
 63.34937    137.9 1.005e+04 4.279e-10
 63.38890    139.6 1.018e+04 5.047e-10
 63.42844    141.3 1.021e+04 5.614e-10
 63.45794    143.0 1.017e+04 5.712e-10
 63.47771    142.3 1.034e+04 6.555e-10
 63.50751    144.0 1.010e+04 5.607e-10
 63.54705    145.7 9.842e+03 4.745e-10
 63.58658    147.3 9.531e+03 3.852e-10
 63.62612    148.8 9.199e+03 3.011e-10
 63.66566    150.3 8.876e+03 2.385e-10
 63.70359    151.8 8.590e+03 1.985e-10
 63.72336    151.5 8.470e+03 1.860e-10
 63.74473    153.3 8.284e+03 1.663e-10
 63.78427    155.1 8.153e+03 1.541e-10
 63.82380    157.0 8.060e+03 1.458e-10
 63.86334    159.0 7.988e+03 1.397e-10
 63.90288    161.0 7.941e+03 1.362e-10
 63.94241    163.0 7.932e+03 1.360e-10
 63.96901    165.0 7.940e+03 1.379e-10
 63.98877    164.9 7.876e+03 1.325e-10
 64.02149    166.8 7.931e+03 1.425e-10
 64.06102    168.7 8.031e+03 1.611e-10
 64.10056    170.6 8.181e+03 1.908e-10
 64.14010    172.5 8.402e+03 2.337e-10
 64.17963    174.4 8.684e+03 2.901e-10
 64.21465    176.1 8.977e+03 3.541e-10
 64.23442    175.8 9.075e+03 3.868e-10
 64.25871    177.1 9.362e+03 4.606e-10
 64.29824    178.4 9.604e+03 5.333e-10
 64.33778    179.5 9.824e+03 6.076e-10
 64.37732    180.7 1.001e+04 6.672e-10
 64.41685    181.5 1.007e+04 6.774e-10
 64.45639    182.2 1.005e+04 6.680e-10
 64.48007    182.8 9.951e+03 6.220e-10
 64.49984    181.7 9.839e+03 5.830e-10
 64.53546    182.5 9.440e+03 4.452e-10
 64.57500    183.4 8.939e+03 3.187e-10
 64.61454    184.2 8.494e+03 2.398e-10
 64.65407    185.3 8.409e+03 2.253e-10
 64.69361    186.4 8.414e+03 2.267e-10
 64.72572    187.6 8.473e+03 2.371e-10
 64.74548    187.0 8.381e+03 2.277e-10
 64.77268    188.1 8.584e+03 2.578e-10
 64.81222    188.9 8.801e+03 2.911e-10
 64.85176    189.6 8.983e+03 3.203e-10
 64.89129    190.0 9.121e+03 3.432e-10
 64.93083    190.4 9.243e+03 3.590e-10
 64.97037    190.4 9.352e+03 3.696e-10
 64.99113    190.1 9.465e+03 3.846e-10
 65.01090    189.1 9.363e+03 3.628e-10
 65.04944    188.8 9.495e+03 3.874e-10
 65.08898    188.2 9.657e+03 4.270e-10
 65.12851    187.2 9.827e+03 4.726e-10
 65.16805    185.2 9.973e+03 4.921e-10
 65.20759    183.4 9.962e+03 4.854e-10
 65.23678    181.6 9.904e+03 4.695e-10
 65.25655    181.1 9.742e+03 4.380e-10
 65.28666    179.4 9.739e+03 4.417e-10
 65.32620    177.9 9.740e+03 4.515e-10
 65.36573    176.3 9.825e+03 4.703e-10
 65.40527    175.1 9.819e+03 4.683e-10
 65.43650    174.1 9.810e+03 4.536e-10
 65.45627    172.3 9.706e+03 3.851e-10
 65.48243    171.2 9.442e+03 3.035e-10
 65.50219    171.0 9.539e+03 3.190e-10
 65.52388    169.5 9.524e+03 3.065e-10
 65.56342    167.9 9.555e+03 3.142e-10
 65.60295    166.3 9.707e+03 3.524e-10
 65.64249    164.9 9.935e+03 4.162e-10
 65.68203    163.8 1.010e+04 4.672e-10
 65.72156    163.3 1.027e+04 5.039e-10
 65.74784    162.7 1.022e+04 4.898e-10
 65.76761    162.1 1.010e+04 4.536e-10
 65.80064    160.4 9.867e+03 3.499e-10
 65.84017    158.4 9.556e+03 2.474e-10
 65.87971    156.4 9.258e+03 1.819e-10
 65.91925    154.6 9.099e+03 1.641e-10
 65.95878    153.3 9.088e+03 1.641e-10
 65.99349    152.2 9.147e+03 1.699e-10
 66.01326    150.7 9.172e+03 1.655e-10
 66.03786    149.8 9.530e+03 2.004e-10
 66.07739    149.6 9.829e+03 2.486e-10
 66.10695    149.7 9.886e+03 2.704e-10
 66.12600    149.7 9.977e+03 2.892e-10
 66.13589    149.1 1.008e+04 2.999e-10
 66.14639    148.7 1.020e+04 3.303e-10
 66.16615    148.2 1.030e+04 3.652e-10
 66.18592    146.9 1.055e+04 3.996e-10
 66.20569    142.8 1.339e+04 5.511e-10
 66.22546    136.1 1.781e+04 1.449e-09
 66.24523    130.0 1.959e+04 4.325e-09
 66.25871    125.5 2.033e+04 9.353e-09
 66.26859    123.7 2.037e+04 1.282e-08
 66.27977    121.1 2.134e+04 1.873e-08
 66.28961    118.4 2.226e+04 2.802e-08
 66.29949    115.9 2.276e+04 3.996e-08
 66.30938    113.7 2.277e+04 4.982e-08
 66.31926    111.8 2.275e+04 4.783e-08
 66.32497    109.9 2.273e+04 4.100e-08
 66.32991    108.9 2.268e+04 3.502e-08
 66.33903    106.2 2.257e+04 2.428e-08
 66.34891    102.5 2.223e+04 1.545e-08
 66.35880     97.8 2.112e+04 9.670e-09
 66.36868     92.8 1.892e+04 6.616e-09
 66.37857     88.7 1.668e+04 5.333e-09
 66.38638     86.3 1.564e+04 4.841e-09
 66.39132     86.4 1.544e+04 4.414e-09
 66.40332     85.1 1.522e+04 4.092e-09
 66.42314     83.8 1.500e+04 3.676e-09
 66.44291     82.2 1.434e+04 2.818e-09
 66.46268     80.1 1.357e+04 2.054e-09
 66.48245     77.9 1.282e+04 1.536e-09
 66.50222     76.1 1.213e+04 1.215e-09
 66.51424     74.9 1.159e+04 1.005e-09
 66.52413     74.8 1.150e+04 9.705e-10
 66.54175     74.3 1.119e+04 8.404e-10
 66.56152     74.0 1.097e+04 7.161e-10
 66.58129     73.6 1.077e+04 6.000e-10
 66.60106     72.9 1.060e+04 5.142e-10
 66.62083     72.1 1.053e+04 4.904e-10
 66.63706     71.4 1.055e+04 4.961e-10
 66.64695     70.9 1.061e+04 5.008e-10
 66.66036     70.0 1.075e+04 5.469e-10
 66.68013     69.0 1.100e+04 6.466e-10
 66.69990     68.2 1.129e+04 7.906e-10
 66.71967     67.6 1.153e+04 9.311e-10
 66.73944     66.8 1.160e+04 9.600e-10
 66.75920     66.0 1.156e+04 9.372e-10
 66.76977     65.2 1.135e+04 8.388e-10
 66.77966     64.5 1.140e+04 8.442e-10
 66.79874     63.6 1.108e+04 6.771e-10
 66.81390     62.5 1.070e+04 4.992e-10
 66.82378     61.9 1.062e+04 4.426e-10
 66.83828     60.1 1.026e+04 3.222e-10
 66.85804     58.1 1.023e+04 3.115e-10
 66.87781     56.3 1.024e+04 3.200e-10
 66.89260     54.3 1.041e+04 3.668e-10
 66.90248     52.7 1.057e+04 4.396e-10
 66.91735     51.5 1.075e+04 6.027e-10
 66.93712     51.1 1.096e+04 7.228e-10
 66.95689     50.8 1.097e+04 7.213e-10
 66.97665     50.5 1.093e+04 6.525e-10
 66.99642     50.5 1.090e+04 6.371e-10
 67.01552     50.5 1.061e+04 4.807e-10
 67.03538     47.9 1.040e+04 3.505e-10
 67.06581     46.2 9.770e+03 2.065e-10
 67.10534     45.5 9.474e+03 1.875e-10
 67.14488     45.6 9.524e+03 2.088e-10
 67.18442     46.3 1.001e+04 3.167e-10
 67.22395     47.2 1.071e+04 5.058e-10
 67.26126     47.9 1.125e+04 6.961e-10
 67.28103     46.2 1.198e+04 1.017e-09
 67.30303     46.8 1.225e+04 1.098e-09
 67.34256     47.7 1.220e+04 1.014e-09
 67.38210     48.7 1.185e+04 7.759e-10
 67.42164     49.8 1.123e+04 5.232e-10
 67.46117     50.7 1.061e+04 3.563e-10
 67.50071     51.6 1.026e+04 2.947e-10
 67.52668     52.7 1.021e+04 2.783e-10
 67.54645     51.4 1.074e+04 3.396e-10
 67.57978     52.5 1.123e+04 4.482e-10
 67.61932     53.4 1.198e+04 7.080e-10
 67.65886     54.3 1.271e+04 1.115e-09
 67.68841     54.3 1.338e+04 1.699e-09
 67.70808     54.6 1.361e+04 2.022e-09
 67.72785     55.0 1.379e+04 2.307e-09
 67.74762     55.4 1.385e+04 2.491e-09
 67.76739     56.0 1.377e+04 2.430e-09
 67.78201     56.5 1.364e+04 2.304e-09
 67.79190     55.8 1.352e+04 2.222e-09
 67.80692     55.9 1.330e+04 1.897e-09
 67.82669     55.9 1.311e+04 1.632e-09
 67.84646     55.5 1.337e+04 1.507e-09
 67.86623     55.3 1.349e+04 1.467e-09
 67.88600     55.2 1.362e+04 1.488e-09
 67.90484     55.2 1.377e+04 1.531e-09
 67.91472     54.0 1.394e+04 1.524e-09
 67.92553     54.4 1.410e+04 1.617e-09
 67.94530     54.8 1.422e+04 1.710e-09
 67.96507     55.3 1.435e+04 1.848e-09
 67.98484     55.8 1.454e+04 2.091e-09
 68.00461     56.4 1.476e+04 2.380e-09
 68.02438     56.9 1.497e+04 2.777e-09
 68.03755     57.5 1.512e+04 3.223e-09
 68.04743     57.1 1.473e+04 2.727e-09
 68.06391     57.9 1.475e+04 2.884e-09
 68.08368     58.8 1.473e+04 2.899e-09
 68.10345     59.7 1.465e+04 2.791e-09
 68.12322     60.7 1.450e+04 2.555e-09
 68.14299     61.6 1.434e+04 2.268e-09
 68.16037     62.2 1.415e+04 1.954e-09
 68.17025     61.4 1.372e+04 1.538e-09
 68.18161     61.7 1.349e+04 1.340e-09
 68.19149     59.4 1.350e+04 1.297e-09
 68.20229     59.9 1.337e+04 1.156e-09
 68.22206     60.6 1.316e+04 1.065e-09
 68.24183     61.1 1.330e+04 1.004e-09
 68.26159     61.4 1.330e+04 1.002e-09
 68.28329     62.4 1.300e+04 9.435e-10
 68.30316     61.6 1.345e+04 9.894e-10
 68.32100     63.5 1.291e+04 8.986e-10
 68.34067     64.5 1.285e+04 8.702e-10
 68.36044     65.2 1.261e+04 8.744e-10
 68.38020     65.8 1.252e+04 8.839e-10
 68.39997     66.5 1.251e+04 8.919e-10
 68.41590     67.2 1.248e+04 9.002e-10
 68.42578     66.3 1.269e+04 9.949e-10
 68.43951     67.0 1.262e+04 1.001e-09
 68.45928     67.6 1.255e+04 9.969e-10
 68.47905     68.2 1.243e+04 9.737e-10
 68.49881     68.9 1.232e+04 9.289e-10
 68.51858     69.7 1.221e+04 8.797e-10
 68.53835     70.6 1.212e+04 8.245e-10
 68.54861     71.4 1.204e+04 7.440e-10
 68.55849     70.6 1.213e+04 7.427e-10
 68.57789     71.2 1.193e+04 6.301e-10
 68.59766     71.6 1.165e+04 5.307e-10
 68.61742     72.0 1.134e+04 4.675e-10
 68.63719     72.4 1.110e+04 4.554e-10
 68.65696     73.1 1.106e+04 4.625e-10
 68.67143     73.9 1.103e+04 4.788e-10
 68.68132     73.3 1.101e+04 4.783e-10
 68.69650     74.1 1.100e+04 4.910e-10
 68.71627     74.9 1.100e+04 4.987e-10
 68.73603     75.6 1.101e+04 5.038e-10
 68.75580     76.3 1.098e+04 5.097e-10
 68.77557     76.9 1.091e+04 5.102e-10
 68.79426     77.4 1.083e+04 4.804e-10
 68.81412     76.0 1.070e+04 3.910e-10
 68.84496     77.3 1.057e+04 3.529e-10
 68.88449     78.2 1.046e+04 3.316e-10
 68.92403     78.9 1.041e+04 3.361e-10
 68.96357     79.5 1.036e+04 3.560e-10
 68.99312     80.1 1.031e+04 3.776e-10
 69.01279     80.7 1.032e+04 3.936e-10
 69.03256     81.4 1.037e+04 4.094e-10
 69.04979     81.8 1.045e+04 4.199e-10
 69.05967     81.4 1.043e+04 4.039e-10
 69.07210     81.3 1.052e+04 4.145e-10
 69.09186     80.7 1.064e+04 4.375e-10
 69.11163     79.1 1.105e+04 4.839e-10
 69.13140     77.0 1.212e+04 7.129e-10
 69.15117     74.3 1.370e+04 1.262e-09
 69.17094     71.2 1.598e+04 2.645e-09
 69.18249     67.4 1.814e+04 5.393e-09
 69.19238     65.6 1.863e+04 7.061e-09
 69.21047     61.5 1.965e+04 9.794e-09
 69.23024     57.6 1.912e+04 1.046e-08
 69.25001     54.2 1.866e+04 9.118e-09
 69.26978     50.3 1.931e+04 7.223e-09
 69.28955     39.7 2.497e+04 5.060e-09
 69.30532     16.4 3.844e+04 4.427e-09
 69.31515     -9.7 4.067e+04 7.742e-09
 69.32404    -15.2 3.250e+04 1.608e-08
 69.33393    -21.8 2.839e+04 2.233e-08
 69.34880    -30.0 2.644e+04 1.836e-08
 69.36862    -41.1 2.255e+04 9.057e-09
 69.38839    -50.6 1.770e+04 3.567e-09
 69.40816    -55.7 1.468e+04 2.225e-09
 69.42793    -57.6 1.352e+04 1.582e-09
 69.43803    -58.4 1.314e+04 1.367e-09
 69.44791    -60.1 1.423e+04 1.917e-09
 69.46746    -60.5 1.429e+04 1.838e-09
 69.48723    -61.9 1.469e+04 1.833e-09
 69.50700    -64.3 1.543e+04 2.037e-09
 69.52677    -67.3 1.650e+04 2.688e-09
 69.54654    -69.7 1.784e+04 3.919e-09
 69.55920    -71.9 1.892e+04 5.163e-09
 69.56363    -71.7 1.872e+04 5.093e-09
 69.57073    -72.9 2.068e+04 9.655e-09
 69.58607    -75.8 2.082e+04 9.864e-09
 69.60584    -78.5 1.997e+04 7.763e-09
 69.62561    -81.2 1.850e+04 5.305e-09
 69.64538    -83.6 1.688e+04 3.589e-09
 69.66515    -86.4 1.545e+04 2.367e-09
 69.68367    -89.7 1.420e+04 1.562e-09
 69.69356    -92.4 1.451e+04 1.621e-09
 69.70468    -95.2 1.308e+04 1.042e-09
 69.72445    -96.6 1.219e+04 7.779e-10
 69.74422    -97.4 1.181e+04 6.350e-10
 69.76399    -98.1 1.173e+04 5.295e-10
 69.78375    -99.1 1.173e+04 4.472e-10
 69.80352    -99.8 1.162e+04 3.918e-10
 69.81638   -100.2 1.146e+04 3.564e-10
 69.83625   -102.1 1.143e+04 3.496e-10
 69.87291   -100.7 1.122e+04 3.442e-10
 69.91244    -99.8 1.154e+04 4.545e-10
 69.95198    -99.0 1.234e+04 6.776e-10
 69.99152    -98.9 1.338e+04 1.033e-09
 70.02107    -98.0 1.403e+04 1.276e-09
 70.04074    -99.2 1.466e+04 1.584e-09
 70.06051   -101.1 1.551e+04 2.576e-09
 70.07191   -102.7 1.591e+04 3.206e-09
 70.08180   -103.2 1.588e+04 3.206e-09
 70.10005   -103.7 1.629e+04 3.838e-09
 70.11982   -104.4 1.659e+04 4.121e-09
 70.13958   -105.3 1.674e+04 4.157e-09
 70.15935   -106.5 1.670e+04 3.875e-09
 70.17912   -107.8 1.639e+04 3.603e-09
 70.19474   -108.8 1.596e+04 3.332e-09
 70.20462   -109.2 1.577e+04 3.129e-09
 70.21866   -109.4 1.530e+04 2.838e-09
 70.23843   -109.0 1.480e+04 2.325e-09
 70.25819   -108.5 1.426e+04 1.671e-09
 70.27796   -108.3 1.374e+04 1.083e-09
 70.29773   -109.1 1.327e+04 6.902e-10
 70.31750   -110.5 1.273e+04 4.788e-10
 70.33727   -112.3 1.233e+04 4.161e-10
 70.35704   -113.8 1.235e+04 4.156e-10
 70.37680   -118.0 1.383e+04 5.609e-10
 70.39657   -125.9 1.747e+04 1.516e-09
 70.41634   -132.5 2.020e+04 4.613e-09
 70.43611   -137.5 2.144e+04 1.046e-08
 70.45027   -143.0 2.157e+04 1.480e-08
 70.46015   -140.3 2.270e+04 1.506e-08
 70.47565   -148.0 2.287e+04 1.691e-08
 70.49541   -156.7 2.188e+04 1.343e-08
 70.51518   -167.9 1.886e+04 6.463e-09
 70.53495   -180.8 1.491e+04 2.809e-09
 70.55472   -189.5 1.459e+04 1.875e-09
 70.57309   -195.1 1.479e+04 1.712e-09
 70.58298   -198.8 1.514e+04 1.796e-09
 70.59426   -203.1 1.501e+04 1.739e-09
 70.61402   -206.4 1.471e+04 1.578e-09
 70.63379   -209.5 1.419e+04 1.275e-09
 70.65356   -212.0 1.382e+04 1.031e-09
 70.67333   -214.3 1.334e+04 8.500e-10
 70.70308   -216.9 1.268e+04 6.487e-10
 70.74271   -219.1 1.152e+04 4.393e-10
 70.78225   -219.9 1.087e+04 3.290e-10
 70.81893   -219.5 1.062e+04 2.790e-10
 70.83870   -221.6 1.060e+04 2.773e-10
 70.86132   -220.1 1.052e+04 2.532e-10
 70.90086   -218.4 1.049e+04 2.479e-10
 70.92710   -217.1 1.055e+04 2.628e-10
 70.94687   -218.2 1.059e+04 2.904e-10
 70.97993   -217.2 1.106e+04 3.857e-10
 71.01947   -216.9 1.144e+04 5.091e-10
 71.04902   -215.8 1.153e+04 5.699e-10
 71.06870   -215.6 1.161e+04 6.590e-10
 71.08415   -215.0 1.166e+04 7.181e-10
 71.09404   -214.9 1.139e+04 5.579e-10
 71.10823   -214.6 1.140e+04 5.750e-10
 71.12800   -214.3 1.140e+04 5.778e-10
 71.14777   -214.0 1.136e+04 5.645e-10
 71.16754   -213.8 1.131e+04 5.415e-10
 71.18730   -213.6 1.127e+04 5.282e-10
 71.20698   -213.5 1.127e+04 5.261e-10
 71.22675   -213.2 1.117e+04 4.640e-10
 71.24661   -213.2 1.126e+04 5.330e-10
 71.26638   -213.1 1.141e+04 6.219e-10
 71.28615   -212.9 1.158e+04 7.183e-10
 71.30591   -212.6 1.176e+04 8.062e-10
 71.32568   -212.5 1.192e+04 8.762e-10
 71.33969   -212.4 1.206e+04 9.113e-10
 71.34957   -212.3 1.187e+04 8.494e-10
 71.36522   -212.3 1.193e+04 8.557e-10
 71.38499   -212.3 1.194e+04 8.523e-10
 71.40476   -212.4 1.195e+04 8.015e-10
 71.42452   -212.5 1.181e+04 7.168e-10
 71.44429   -212.7 1.163e+04 6.292e-10
 71.46251   -213.2 1.141e+04 5.528e-10
 71.47239   -213.1 1.142e+04 5.499e-10
 71.48383   -213.9 1.122e+04 4.982e-10
 71.50360   -214.6 1.096e+04 4.605e-10
 71.53335   -214.9 1.074e+04 4.345e-10
 71.57298   -214.2 1.065e+04 4.320e-10
 71.59541   -213.6 1.071e+04 4.948e-10
 71.61518   -213.9 1.071e+04 4.914e-10
 71.65206   -213.1 1.102e+04 5.919e-10
 71.69159   -212.1 1.128e+04 6.750e-10
 71.71814   -211.5 1.142e+04 7.693e-10
 71.72792   -211.6 1.123e+04 6.987e-10
 71.74082   -211.5 1.114e+04 6.744e-10
 71.76059   -210.9 1.104e+04 6.350e-10
 71.78035   -210.4 1.093e+04 5.821e-10
 71.80012   -210.0 1.078e+04 5.260e-10
 71.81989   -209.5 1.063e+04 4.721e-10
 71.83966   -209.1 1.049e+04 4.253e-10
 71.85075   -208.6 1.038e+04 3.883e-10
 71.86063   -208.5 1.034e+04 3.726e-10
 71.87920   -208.0 1.028e+04 3.566e-10
 71.89896   -207.3 1.026e+04 3.461e-10
 71.91873   -206.7 1.025e+04 3.437e-10
 71.93850   -206.2 1.030e+04 3.443e-10
 71.95827   -205.7 1.041e+04 3.553e-10
 71.97357   -205.2 1.062e+04 3.932e-10
 71.98346   -205.5 1.085e+04 4.740e-10
 71.99781   -205.1 1.107e+04 5.573e-10
 72.01757   -204.7 1.131e+04 6.576e-10
 72.03734   -204.2 1.157e+04 7.642e-10
 72.05711   -203.8 1.183e+04 8.537e-10
 72.08661   -203.4 1.212e+04 9.454e-10
 72.10638   -203.6 1.215e+04 9.998e-10
 72.11642   -203.3 1.222e+04 1.028e-09
 72.13618   -203.2 1.223e+04 1.050e-09
 72.15595   -203.1 1.212e+04 1.014e-09
 72.17572   -203.0 1.194e+04 9.358e-10
 72.19549   -202.9 1.160e+04 8.287e-10
 72.21526   -202.8 1.145e+04 7.722e-10
 72.22910   -202.6 1.136e+04 7.377e-10
 72.23899   -202.8 1.111e+04 6.103e-10
 72.25479   -202.6 1.115e+04 6.164e-10
 72.27456   -202.4 1.125e+04 6.372e-10
 72.29433   -202.1 1.140e+04 6.718e-10
 72.30450   -201.9 1.157e+04 7.186e-10
 72.31438   -202.1 1.121e+04 6.076e-10
 72.33387   -201.9 1.132e+04 6.360e-10
 72.35193   -201.9 1.142e+04 6.754e-10
 72.36181   -201.8 1.153e+04 6.854e-10
 72.37340   -201.8 1.164e+04 7.442e-10
 72.39317   -202.5 1.193e+04 8.840e-10
 72.41294   -203.6 1.258e+04 1.234e-09
 72.43271   -204.7 1.338e+04 1.844e-09
 72.45248   -205.7 1.406e+04 2.555e-09
 72.47225   -206.6 1.448e+04 3.072e-09
 72.48463   -207.7 1.457e+04 3.198e-09
 72.49452   -207.6 1.493e+04 3.742e-09
 72.51178   -208.7 1.487e+04 3.667e-09
 72.53155   -209.6 1.433e+04 2.720e-09
 72.55132   -210.8 1.347e+04 1.645e-09
 72.57109   -212.6 1.247e+04 9.910e-10
 72.59085   -214.1 1.168e+04 6.966e-10
 72.60746   -214.6 1.143e+04 6.128e-10
 72.61734   -214.9 1.135e+04 5.283e-10
 72.64037   -215.4 1.125e+04 4.489e-10
 72.68001   -215.7 1.093e+04 3.672e-10
 72.71954   -215.5 1.080e+04 3.164e-10
 72.75908   -214.9 1.077e+04 2.987e-10
 72.79862   -214.1 1.075e+04 3.084e-10
 72.83815   -213.3 1.111e+04 3.944e-10
 72.86318   -212.5 1.165e+04 5.635e-10
 72.88295   -212.7 1.171e+04 5.691e-10
 72.91723   -211.7 1.233e+04 8.722e-10
 72.94678   -210.4 1.253e+04 1.102e-09
 72.96645   -210.5 1.271e+04 1.183e-09
 72.98581   -210.4 1.275e+04 1.200e-09
 72.99570   -210.5 1.284e+04 1.257e-09
 73.00599   -210.5 1.283e+04 1.217e-09
 73.02576   -210.5 1.267e+04 1.071e-09
 73.04553   -210.6 1.243e+04 8.596e-10
 73.07528   -211.2 1.206e+04 6.396e-10
 73.10883   -210.3 1.153e+04 4.660e-10
 73.12860   -209.9 1.144e+04 4.479e-10
 73.15445   -208.8 1.103e+04 3.618e-10
 73.19398   -207.6 1.092e+04 3.395e-10
 73.23352   -206.5 1.092e+04 3.503e-10
 73.27306   -205.8 1.109e+04 3.766e-10
 73.31259   -205.2 1.124e+04 3.953e-10
 73.35213   -204.8 1.129e+04 3.979e-10
 73.37425   -204.0 1.128e+04 3.553e-10
 73.39402   -203.6 1.135e+04 3.616e-10
 73.43120   -202.5 1.115e+04 2.863e-10
 73.47074   -201.1 1.088e+04 2.212e-10
 73.51028   -199.6 1.067e+04 1.788e-10
 73.54981   -197.9 1.055e+04 1.570e-10
 73.58935   -196.0 1.050e+04 1.491e-10
 73.61990   -194.1 1.048e+04 1.473e-10
 73.63966   -193.4 1.050e+04 1.530e-10
 73.66252   -191.5 1.044e+04 1.523e-10
 73.68229   -190.5 1.040e+04 1.252e-10
 73.70796   -188.5 1.036e+04 1.254e-10
 73.74750   -186.6 1.033e+04 1.301e-10
 73.78703   -184.7 1.032e+04 1.434e-10
 73.82657   -182.9 1.040e+04 1.692e-10
 73.86554   -181.1 1.054e+04 2.065e-10
 73.88531   -180.4 1.048e+04 1.896e-10
 73.90564   -178.7 1.064e+04 2.300e-10
 73.94518   -177.1 1.076e+04 2.578e-10
 73.98472   -175.6 1.079e+04 2.629e-10
 74.02425   -174.1 1.077e+04 2.600e-10
 74.06379   -172.3 1.066e+04 2.386e-10
 74.10333   -170.5 1.055e+04 2.136e-10
 74.13096   -168.7 1.046e+04 1.944e-10
 74.15073   -167.8 1.036e+04 1.888e-10
 74.18240   -165.9 1.028e+04 1.746e-10
 74.22194   -163.9 1.021e+04 1.658e-10
 74.26147   -161.8 1.016e+04 1.624e-10
 74.30101   -159.8 1.015e+04 1.621e-10
 74.34055   -158.0 1.017e+04 1.656e-10
 74.37661   -156.3 1.029e+04 1.844e-10
 74.39637   -155.2 1.027e+04 1.794e-10
 74.41962   -153.5 1.041e+04 2.127e-10
 74.45916   -151.9 1.055e+04 2.557e-10
 74.49869   -150.3 1.075e+04 2.998e-10
 74.53823   -148.7 1.098e+04 3.506e-10
 74.56778   -147.1 1.126e+04 4.044e-10
 74.58745   -147.2 1.136e+04 4.405e-10
 74.60722   -147.1 1.152e+04 5.189e-10
 74.62699   -147.1 1.160e+04 5.748e-10
 74.64183   -147.0 1.177e+04 6.502e-10
 74.65171   -146.3 1.176e+04 6.495e-10
 74.66653   -146.2 1.197e+04 7.415e-10
 74.68630   -146.3 1.221e+04 8.636e-10
 74.70606   -146.5 1.250e+04 1.035e-09
 74.72583   -146.7 1.284e+04 1.263e-09
 74.74560   -147.0 1.320e+04 1.510e-09
 74.76465   -147.5 1.345e+04 1.681e-09
 74.77453   -146.6 1.339e+04 1.620e-09
 74.78514   -147.3 1.350e+04 1.710e-09
 74.80491   -148.2 1.352e+04 1.730e-09
 74.82467   -149.2 1.333e+04 1.603e-09
 74.84444   -150.0 1.297e+04 1.366e-09
 74.86421   -150.8 1.260e+04 1.138e-09
 74.88398   -151.8 1.230e+04 9.703e-10
 74.89736   -152.9 1.210e+04 8.592e-10
 74.90724   -151.9 1.219e+04 8.855e-10
 74.92352   -153.1 1.204e+04 7.966e-10
 74.94328   -154.4 1.183e+04 7.191e-10
 74.97303   -154.5 1.162e+04 6.324e-10
 75.01267   -155.2 1.137e+04 5.722e-10
 75.05220   -156.0 1.119e+04 5.422e-10
 75.09174   -156.5 1.101e+04 5.336e-10
 75.13128   -156.5 1.084e+04 5.251e-10
 75.15308   -156.4 1.065e+04 4.878e-10
 75.17285   -155.4 1.087e+04 5.573e-10
 75.21035   -155.2 1.057e+04 4.438e-10
 75.24989   -154.4 1.024e+04 3.428e-10
 75.28942   -153.3 9.965e+03 2.704e-10
 75.32896   -152.0 9.770e+03 2.285e-10
 75.36850   -150.5 9.660e+03 2.107e-10
 75.39873   -148.9 9.608e+03 2.045e-10
 75.41850   -148.3 9.627e+03 2.072e-10
 75.44757   -146.6 9.579e+03 2.017e-10
 75.48711   -144.9 9.515e+03 1.926e-10
 75.52664   -143.2 9.432e+03 1.799e-10
 75.56618   -141.5 9.344e+03 1.685e-10
 75.60572   -139.8 9.279e+03 1.638e-10
 75.64438   -138.0 9.270e+03 1.655e-10
 75.66415   -137.3 9.285e+03 1.648e-10
 75.68479   -135.7 9.359e+03 1.802e-10
 75.72433   -134.1 9.461e+03 2.081e-10
 75.76386   -132.8 9.574e+03 2.364e-10
 75.80340   -131.7 9.668e+03 2.543e-10
 75.84294   -130.8 9.726e+03 2.631e-10
 75.88247   -129.9 9.761e+03 2.660e-10
 75.90979   -128.8 9.837e+03 2.744e-10
 75.92956   -128.1 9.645e+03 2.281e-10
 75.96155   -127.0 9.772e+03 2.432e-10
 76.00108   -125.7 1.003e+04 2.920e-10
 76.04062   -124.4 1.030e+04 3.622e-10
 76.08016   -123.3 1.054e+04 4.269e-10
 76.11969   -122.7 1.068e+04 4.543e-10
 76.15544   -122.7 1.072e+04 4.438e-10
 76.17521   -121.3 1.057e+04 4.076e-10
 76.19877   -121.0 1.039e+04 3.476e-10
 76.23830   -120.4 1.006e+04 2.738e-10
 76.27784   -119.5 9.776e+03 2.243e-10
 76.31738   -118.1 9.617e+03 1.973e-10
 76.35691   -116.5 9.570e+03 1.805e-10
 76.39645   -114.9 9.527e+03 1.677e-10
 76.41771   -113.2 9.468e+03 1.581e-10
 76.42234   -113.5 9.308e+03 1.384e-10
 76.44062   -112.6 9.304e+03 1.380e-10
 76.47552   -110.9 9.299e+03 1.352e-10
 76.51506   -109.4 9.320e+03 1.372e-10
 76.55460   -107.9 9.422e+03 1.611e-10
 76.59413   -106.5 9.763e+03 2.163e-10
 76.63367   -104.8 1.026e+04 3.135e-10
 76.66322   -102.6 1.050e+04 3.966e-10
 76.67619   -102.8 1.056e+04 4.234e-10
 76.68617   -102.2 1.046e+04 3.887e-10
 76.70276   -101.4 1.053e+04 4.779e-10
 76.72243   -101.4 1.056e+04 5.212e-10
 76.74220   -100.6 1.055e+04 5.542e-10
 76.76197    -99.7 1.052e+04 5.424e-10
 76.78174    -98.8 1.046e+04 4.801e-10
 76.79902    -98.3 1.037e+04 4.209e-10
 76.80890    -97.4 1.026e+04 3.946e-10
 76.82127    -96.7 1.022e+04 3.559e-10
 76.84104    -96.5 1.021e+04 3.520e-10
 76.86081    -95.9 1.017e+04 3.443e-10
 76.88058    -95.7 1.017e+04 3.568e-10
 76.90035    -94.9 1.027e+04 3.956e-10
 76.92011    -94.7 1.036e+04 4.268e-10
 76.93172    -94.1 1.051e+04 4.932e-10
 76.94161    -92.5 1.035e+04 4.198e-10
 76.95965    -92.3 1.039e+04 4.400e-10
 76.97942    -91.2 1.043e+04 4.700e-10
 76.99919    -90.5 1.038e+04 4.687e-10
 77.02894    -88.6 1.033e+04 4.168e-10
 77.06857    -86.9 1.022e+04 3.480e-10
 77.09813    -84.7 1.010e+04 2.931e-10
 77.11780    -84.6 1.009e+04 2.872e-10
 77.13757    -83.3 1.005e+04 2.655e-10
 77.15733    -83.2 1.016e+04 2.743e-10
 77.17710    -83.5 1.035e+04 2.929e-10
 77.18726    -84.5 1.068e+04 4.122e-10
 77.19714    -81.9 1.036e+04 3.113e-10
 77.21664    -82.5 1.048e+04 4.282e-10
 77.23641    -83.0 1.107e+04 6.834e-10
 77.25618    -83.2 1.186e+04 1.116e-09
 77.27594    -83.2 1.279e+04 1.801e-09
 77.29571    -82.7 1.369e+04 2.676e-09
 77.31008    -81.9 1.437e+04 3.331e-09
 77.31996    -79.9 1.339e+04 2.445e-09
 77.33525    -78.9 1.404e+04 2.906e-09
 77.35502    -78.3 1.447e+04 2.945e-09
 77.37479    -78.1 1.463e+04 2.428e-09
 77.39455    -78.4 1.428e+04 1.932e-09
 77.41432    -79.0 1.381e+04 1.522e-09
 77.43290    -79.2 1.354e+04 1.379e-09
 77.44279    -76.5 1.350e+04 1.384e-09
 77.46384    -74.4 1.334e+04 1.325e-09
 77.50348    -72.9 1.354e+04 1.326e-09
 77.53303    -72.7 1.411e+04 1.674e-09
 77.55270    -72.1 1.460e+04 1.915e-09
 77.56561    -71.2 1.516e+04 2.353e-09
 77.57549    -68.7 1.488e+04 2.343e-09
 77.59224    -68.3 1.554e+04 2.752e-09
 77.61201    -67.7 1.621e+04 3.297e-09
 77.63177    -67.8 1.672e+04 3.853e-09
 77.65154    -67.7 1.732e+04 4.501e-09
 77.67131    -67.6 1.763e+04 4.868e-09
 77.68843    -67.4 1.757e+04 4.592e-09
 77.69832    -65.3 1.858e+04 6.614e-09
 77.71085    -65.1 1.849e+04 6.553e-09
 77.73062    -64.6 1.789e+04 5.204e-09
 77.75038    -63.9 1.681e+04 3.144e-09
 77.77015    -62.7 1.564e+04 1.513e-09
 77.78522    -62.5 1.487e+04 6.339e-10
 77.79510    -62.2 1.547e+04 1.001e-09
 77.80969    -61.5 1.491e+04 5.408e-10
 77.82114    -62.2 1.410e+04 3.236e-10
 77.83103    -59.2 1.528e+04 6.712e-10
 77.85921    -64.1 1.270e+04 2.968e-10
 77.89884    -65.8 1.123e+04 2.981e-10
 77.93428    -65.3 1.121e+04 3.471e-10
 77.95404    -59.6 1.062e+04 3.559e-10
 77.96793    -60.5 1.179e+04 4.388e-10
 77.98760    -60.4 1.197e+04 4.972e-10
 78.00737    -60.1 1.259e+04 6.787e-10
 78.02714    -60.1 1.302e+04 9.298e-10
 78.04691    -59.8 1.371e+04 1.492e-09
 78.06668    -59.9 1.470e+04 2.472e-09
 78.07667    -59.9 1.629e+04 4.044e-09
 78.08656    -58.1 1.584e+04 4.309e-09
 78.10122    -57.4 1.663e+04 5.916e-09
 78.11106    -57.0 1.685e+04 6.366e-09
 78.12094    -56.0 1.861e+04 9.373e-09
 78.13083    -58.7 2.261e+04 1.266e-08
 78.13799    -63.5 3.084e+04 2.399e-08
 78.14293    -56.7 2.434e+04 1.810e-08
 78.15059    -62.9 3.163e+04 3.370e-08
 78.16048    -68.8 3.254e+04 8.756e-08
 78.17036    -74.1 2.755e+04 1.927e-07
 78.18025    -77.6 2.490e+04 2.668e-07
 78.19013    -79.2 2.282e+04 2.615e-07
 78.19940    -79.7 2.220e+04 1.564e-07
 78.20434    -77.6 2.261e+04 3.232e-07
 78.20990    -77.7 2.248e+04 1.646e-07
 78.21978    -78.4 2.399e+04 4.008e-08
 78.22967    -81.8 2.694e+04 5.433e-09
 78.24454    -85.1 2.642e+04 2.479e-09
 78.26436    -93.0 1.904e+04 2.321e-10
 78.28413    -89.5 1.743e+04 8.283e-11
 78.30390    -95.6 1.708e+04 6.566e-11
 78.33365   -104.6 1.501e+04 8.221e-11
 78.37328   -110.9 8.224e+03 9.842e-11
 78.41282   -112.2 8.789e+03 1.680e-10
 78.44534   -113.0 1.002e+04 3.828e-10
 78.46511   -111.9 1.022e+04 4.023e-10
 78.49189   -112.5 1.125e+04 7.710e-10
 78.53143   -114.2 1.179e+04 9.986e-10
 78.57096   -116.9 1.184e+04 1.034e-09
 78.61050   -119.1 1.130e+04 8.358e-10
 78.65004   -120.8 1.027e+04 4.822e-10
 78.68957   -122.4 9.254e+03 2.689e-10
 78.71075   -123.3 8.691e+03 1.827e-10
 78.73052   -124.8 8.818e+03 1.913e-10
 78.76865   -125.3 8.589e+03 1.600e-10
 78.80818   -124.4 8.494e+03 1.503e-10
 78.84772   -123.4 8.474e+03 1.471e-10
 78.88726   -122.2 8.481e+03 1.468e-10
 78.92679   -120.8 8.505e+03 1.509e-10
 78.95640   -119.3 8.488e+03 2.236e-10
 78.97617   -122.7 9.455e+03 4.016e-10
 78.99589   -123.1 9.718e+03 5.253e-10
 79.01556   -123.1 1.038e+04 7.464e-10
 79.03532   -123.2 1.110e+04 9.768e-10
 79.05509   -123.7 1.188e+04 1.500e-09
 79.07486   -125.2 1.365e+04 2.574e-09
 79.08891   -127.1 1.615e+04 4.770e-09
 79.09880   -130.9 1.810e+04 5.723e-09
 79.11440   -133.2 1.966e+04 8.625e-09
 79.13417   -136.3 2.068e+04 1.050e-08
 79.14894   -139.1 2.104e+04 1.074e-08
 79.15517   -139.9 2.098e+04 1.082e-08
 79.15911   -141.8 2.054e+04 1.024e-08
 79.16276   -143.5 2.007e+04 9.815e-09
 79.16871   -146.3 1.921e+04 9.445e-09
 79.17855   -147.3 1.882e+04 9.639e-09
 79.18843   -148.5 1.843e+04 1.005e-08
 79.19832   -148.9 1.834e+04 1.057e-08
 79.20820   -149.1 1.835e+04 1.086e-08
 79.21658   -149.3 1.837e+04 1.091e-08
 79.22152   -150.2 1.798e+04 9.964e-09
 79.22797   -150.1 1.784e+04 9.976e-09
 79.23785   -149.8 1.759e+04 9.626e-09
 79.24774   -149.5 1.741e+04 9.166e-09
 79.25762   -149.1 1.727e+04 8.676e-09
 79.26750   -148.8 1.705e+04 8.116e-09
 79.27739   -148.5 1.676e+04 7.577e-09
 79.29226   -148.3 1.640e+04 6.961e-09
 79.31208   -147.1 1.612e+04 6.338e-09
 79.33185   -146.0 1.609e+04 6.026e-09
 79.34445   -145.2 1.617e+04 6.009e-09
 79.35433   -146.2 1.603e+04 5.932e-09
 79.37139   -145.3 1.620e+04 6.174e-09
 79.39115   -144.4 1.638e+04 6.433e-09
 79.41092   -143.4 1.654e+04 6.595e-09
 79.43069   -142.3 1.666e+04 6.590e-09
 79.45046   -141.3 1.664e+04 6.309e-09
 79.46727   -140.3 1.659e+04 5.702e-09
 79.47715   -141.8 1.844e+04 5.516e-09
 79.49000   -141.2 1.998e+04 4.748e-09
 79.50976   -140.8 2.197e+04 4.097e-09
 79.52953   -140.1 2.325e+04 3.667e-09
 79.54930   -139.4 2.498e+04 3.384e-09
 79.56907   -138.7 2.743e+04 3.310e-09
 79.58884   -138.0 2.982e+04 3.421e-09
 79.59998   -136.8 3.213e+04 3.693e-09
 79.60487   -140.8 3.244e+04 1.548e-08
 79.61345   -140.2 3.171e+04 2.001e-08
 79.62333   -140.1 3.091e+04 2.630e-08
 79.63322   -140.1 3.020e+04 3.343e-08
 79.64310   -140.5 2.925e+04 4.324e-08
 79.65299   -140.9 2.827e+04 5.592e-08
 79.66129   -141.1 2.723e+04 7.449e-08
 79.66623   -143.3 2.378e+04 2.520e-07
 79.67275   -143.3 2.366e+04 2.710e-07
 79.68264   -143.1 2.367e+04 2.768e-07
 79.69252   -142.8 2.371e+04 2.659e-07
 79.70241   -142.0 2.370e+04 2.431e-07
 79.71229   -140.7 2.368e+04 2.298e-07
 79.72218   -139.3 2.361e+04 2.332e-07
 79.72765   -138.1 2.373e+04 2.494e-07
 79.73259   -139.8 2.331e+04 2.502e-07
 79.74194   -139.0 2.347e+04 2.566e-07
 79.75183   -138.9 2.364e+04 2.455e-07
 79.76171   -139.0 2.357e+04 2.030e-07
 79.77160   -138.3 2.351e+04 1.548e-07
 79.78148   -137.7 2.367e+04 1.169e-07
 79.78906   -137.5 2.378e+04 8.514e-08
 79.79400   -138.7 2.238e+04 3.049e-08
 79.80125   -138.5 2.192e+04 2.179e-08
 79.81113   -138.3 2.119e+04 1.585e-08
 79.82102   -138.1 2.027e+04 1.200e-08
 79.83090   -138.0 1.937e+04 9.593e-09
 79.84079   -137.8 1.860e+04 8.046e-09
 79.84657   -137.5 1.802e+04 7.055e-09
 79.85131   -137.9 1.672e+04 5.010e-09
 79.85541   -138.8 1.536e+04 3.592e-09
 79.86055   -138.4 1.530e+04 3.482e-09
 79.87044   -138.3 1.524e+04 3.436e-09
 79.88032   -138.1 1.525e+04 3.454e-09
 79.89021   -138.2 1.520e+04 3.450e-09
 79.90009   -138.3 1.515e+04 3.542e-09
 79.90997   -138.4 1.510e+04 3.574e-09
 79.91682   -138.9 1.501e+04 3.803e-09
 79.92177   -139.3 1.485e+04 3.675e-09
 79.92974   -139.5 1.485e+04 3.733e-09
 79.93963   -140.3 1.493e+04 4.130e-09
 79.94951   -140.5 1.495e+04 4.204e-09
 79.95940   -141.4 1.504e+04 4.584e-09
 79.96928   -141.7 1.512e+04 4.697e-09
 79.97823   -142.8 1.524e+04 5.003e-09
 79.98817   -142.9 1.515e+04 4.886e-09
 79.99898   -144.3 1.535e+04 5.185e-09
 80.00882   -144.7 1.545e+04 5.267e-09
 80.01870   -146.0 1.556e+04 5.363e-09
 80.02858   -146.6 1.560e+04 5.377e-09
 80.03847   -147.8 1.561e+04 5.314e-09
 80.04459   -148.2 1.563e+04 5.213e-09
 80.04953   -147.6 1.557e+04 5.200e-09
 80.06323   -149.4 1.534e+04 4.688e-09
 80.08304   -151.1 1.448e+04 3.499e-09
 80.10116   -152.7 1.360e+04 2.627e-09
 80.11104   -150.9 1.346e+04 2.495e-09
 80.12258   -152.3 1.286e+04 1.964e-09
 80.14235   -153.5 1.240e+04 1.666e-09
 80.16212   -154.2 1.217e+04 1.533e-09
 80.18189   -154.6 1.215e+04 1.483e-09
 80.20165   -155.1 1.220e+04 1.474e-09
 80.22142   -155.7 1.243e+04 1.510e-09
 80.23386   -156.3 1.266e+04 1.584e-09
 80.24375   -154.3 1.237e+04 1.475e-09
 80.26096   -154.8 1.276e+04 1.669e-09
 80.28073   -155.1 1.305e+04 1.839e-09
 80.30050   -155.3 1.328e+04 2.007e-09
 80.32026   -155.4 1.340e+04 2.096e-09
 80.34003   -155.6 1.331e+04 1.986e-09
 80.35669   -155.6 1.301e+04 1.711e-09
 80.36657   -153.6 1.367e+04 2.334e-09
 80.37957   -153.6 1.340e+04 2.067e-09
 80.39934   -153.6 1.296e+04 1.690e-09
 80.41911   -153.6 1.240e+04 1.307e-09
 80.43887   -153.6 1.183e+04 1.007e-09
 80.45864   -153.8 1.134e+04 8.129e-10
 80.47841   -154.0 1.099e+04 7.282e-10
 80.48940   -154.0 1.085e+04 7.194e-10
 80.49928   -151.5 1.131e+04 8.535e-10
 80.51795   -151.6 1.108e+04 7.994e-10
 80.53052   -151.4 1.116e+04 8.446e-10
 80.54040   -152.9 1.128e+04 9.082e-10
 80.55748   -152.6 1.129e+04 9.372e-10
 80.57725   -152.2 1.124e+04 9.403e-10
 80.59702   -151.6 1.110e+04 9.081e-10
 80.61222   -150.8 1.084e+04 8.297e-10
 80.62210   -149.7 1.105e+04 9.007e-10
 80.63656   -148.9 1.079e+04 7.798e-10
 80.65633   -147.9 1.049e+04 6.325e-10
 80.67609   -146.9 1.017e+04 4.823e-10
 80.69586   -145.9 9.828e+03 3.626e-10
 80.71563   -145.2 9.637e+03 3.198e-10
 80.73514   -143.2 9.580e+03 3.001e-10
 80.74502   -143.0 9.629e+03 2.942e-10
 80.75517   -142.3 9.577e+03 2.869e-10
 80.78492   -139.7 9.522e+03 2.747e-10
 80.82455   -137.2 9.386e+03 2.629e-10
 80.86409   -134.8 9.371e+03 2.691e-10
 80.90362   -132.6 9.474e+03 3.018e-10
 80.94316   -130.5 9.605e+03 3.423e-10
 80.98089   -128.5 9.694e+03 3.610e-10
 81.00065   -127.3 9.658e+03 3.609e-10
 81.02223   -125.4 9.675e+03 3.629e-10
 81.06177   -123.6 9.649e+03 3.282e-10
 81.10131   -121.7 9.502e+03 2.715e-10
 81.14084   -119.9 9.338e+03 2.259e-10
 81.18038   -117.9 9.252e+03 1.993e-10
 81.21992   -116.0 9.240e+03 1.926e-10
 81.24630   -114.0 9.276e+03 1.931e-10
 81.26607   -112.7 9.329e+03 1.976e-10
 81.29899   -110.9 9.581e+03 2.289e-10
 81.33853   -109.1 9.752e+03 2.512e-10
 81.37806   -107.6 9.797e+03 2.507e-10
 81.41760   -106.2 9.563e+03 2.169e-10
 81.45714   -104.8 9.111e+03 1.731e-10
 81.49195   -103.2 8.776e+03 1.424e-10
 81.51172   -102.2 9.122e+03 1.667e-10
 81.53621   -100.6 8.722e+03 1.258e-10
 81.57575    -98.8 8.595e+03 1.078e-10
 81.61528    -96.8 8.545e+03 9.745e-11
 81.65482    -94.8 8.531e+03 9.170e-11
 81.69436    -92.8 8.539e+03 8.982e-11
 81.73389    -90.7 8.548e+03 8.945e-11
 81.75736    -88.8 8.586e+03 9.372e-11
 81.77713    -88.0 8.596e+03 9.095e-11
 81.81297    -86.0 8.645e+03 9.980e-11
 81.85250    -84.0 8.701e+03 1.129e-10
 81.88854    -81.8 8.767e+03 1.259e-10
 81.90831    -82.1 8.823e+03 1.349e-10
 81.93158    -79.9 8.925e+03 1.519e-10
 81.97111    -77.8 9.009e+03 1.634e-10
 82.00301    -75.8 9.084e+03 1.698e-10
 82.02278    -74.6 9.160e+03 1.772e-10
 82.05019    -72.5 9.268e+03 1.861e-10
 82.08972    -71.1 9.485e+03 2.074e-10
 82.12926    -70.5 1.009e+04 3.174e-10
 82.16880    -69.6 1.097e+04 5.764e-10
 82.20833    -67.7 1.183e+04 9.398e-10
 82.23789    -66.1 1.260e+04 1.519e-09
 82.25756    -65.9 1.260e+04 1.566e-09
 82.26823    -65.0 1.270e+04 1.513e-09
 82.27812    -64.3 1.294e+04 1.873e-09
 82.29710    -64.3 1.264e+04 1.472e-09
 82.31686    -66.7 1.372e+04 1.491e-09
 82.33663    -71.7 1.562e+04 2.330e-09
 82.35141    -74.3 1.695e+04 3.577e-09
 82.36124    -76.0 1.805e+04 4.381e-09
 82.37113    -79.5 1.985e+04 9.027e-09
 82.38101    -81.8 2.074e+04 1.661e-08
 82.39090    -82.6 2.117e+04 2.854e-08
 82.39590    -82.9 2.146e+04 4.223e-08
 82.40084    -83.0 2.095e+04 3.649e-08
 82.41067    -82.9 2.121e+04 5.128e-08
 82.42055    -84.0 2.279e+04 6.265e-08
 82.43043    -89.6 2.734e+04 8.448e-08
 82.43782    -94.2 3.060e+04 8.822e-08
 82.44274    -98.5 3.349e+04 1.173e-07
 82.45018   -110.9 3.062e+04 3.879e-07
 82.45731   -124.4 2.632e+04 9.832e-07
 82.46225   -115.8 2.717e+04 6.322e-07
 82.46997   -127.2 2.399e+04 1.319e-06
 82.47985   -136.1 2.474e+04 1.087e-06
 82.48974   -144.3 2.966e+04 3.406e-07
 82.49962   -152.8 4.106e+04 2.851e-08
 82.50951   -163.4 4.409e+04 2.467e-09
 82.51872   -177.9 2.422e+04 2.212e-09
 82.52366   -170.5 3.863e+04 2.337e-09
 82.52928   -158.9 2.850e+04 2.925e-09
 82.53916   -178.6 2.200e+04 1.052e-09
 82.55403   -186.7 1.500e+04 2.389e-09
 82.57385   -189.1 1.196e+04 2.074e-09
 82.59362   -188.5 1.192e+04 1.700e-09
 82.61339   -188.1 1.156e+04 1.417e-09
 82.63316   -188.1 1.107e+04 1.160e-09
 82.64659   -188.1 1.066e+04 9.554e-10
 82.65647   -186.7 1.079e+04 1.044e-09
 82.67269   -186.6 1.047e+04 8.890e-10
 82.69246   -186.3 1.022e+04 7.690e-10
 82.71223   -186.0 9.986e+03 6.615e-10
 82.73200   -185.6 9.773e+03 5.734e-10
 82.75177   -185.3 9.608e+03 5.078e-10
 82.76941   -185.0 9.541e+03 4.727e-10
 82.77929   -183.6 9.578e+03 5.114e-10
 82.79130   -183.3 9.572e+03 4.942e-10
 82.81107   -183.1 9.579e+03 4.922e-10
 82.83084   -183.0 9.703e+03 5.100e-10
 82.85061   -183.0 9.920e+03 5.917e-10
 82.87038   -182.8 1.016e+04 7.084e-10
 82.89014   -182.4 1.040e+04 8.360e-10
 82.90212   -181.9 1.061e+04 9.459e-10
 82.91200   -180.8 1.077e+04 1.021e-09
 82.92968   -180.4 1.099e+04 1.154e-09
 82.94945   -180.0 1.112e+04 1.229e-09
 82.96922   -179.8 1.116e+04 1.248e-09
 82.98899   -179.6 1.116e+04 1.228e-09
 83.00875   -179.6 1.107e+04 1.160e-09
 83.02494   -179.6 1.091e+04 1.061e-09
 83.03483   -178.5 1.133e+04 1.321e-09
 83.04829   -178.6 1.114e+04 1.198e-09
 83.06806   -178.7 1.092e+04 1.082e-09
 83.08783   -178.7 1.072e+04 9.850e-10
 83.10760   -178.6 1.055e+04 9.088e-10
 83.12736   -178.5 1.040e+04 8.491e-10
 83.14713   -178.2 1.028e+04 8.017e-10
 83.15765   -177.8 1.018e+04 7.639e-10
 83.16753   -177.3 1.032e+04 8.345e-10
 83.18667   -177.0 1.023e+04 7.939e-10
 83.20644   -176.7 1.014e+04 7.570e-10
 83.22621   -176.3 1.006e+04 7.247e-10
 83.24597   -175.8 1.002e+04 6.976e-10
 83.26574   -175.2 9.996e+03 6.750e-10
 83.27582   -174.4 9.979e+03 6.537e-10
 83.28067   -174.3 9.892e+03 6.357e-10
 83.29036   -174.1 1.014e+04 6.988e-10
 83.30528   -173.4 1.005e+04 6.679e-10
 83.32505   -172.6 9.934e+03 6.235e-10
 83.34482   -171.5 9.791e+03 5.511e-10
 83.36458   -170.5 9.672e+03 4.698e-10
 83.39433   -169.7 9.600e+03 4.014e-10
 83.43397   -168.2 9.427e+03 3.257e-10
 83.47351   -166.2 9.167e+03 2.506e-10
 83.51304   -164.0 8.903e+03 1.948e-10
 83.53620   -161.8 8.778e+03 1.680e-10
 83.55597   -162.0 8.601e+03 1.479e-10
 83.59212   -159.7 8.618e+03 1.450e-10
 83.63165   -157.3 8.650e+03 1.455e-10
 83.67119   -155.0 8.796e+03 1.547e-10
 83.71072   -152.7 8.947e+03 1.725e-10
 83.75026   -150.4 9.070e+03 1.910e-10
 83.78185   -148.1 9.146e+03 2.040e-10
 83.80161   -147.9 9.150e+03 2.027e-10
 83.82933   -145.5 9.242e+03 2.146e-10
 83.86887   -143.0 9.308e+03 2.209e-10
 83.90841   -140.6 9.333e+03 2.223e-10
 83.94794   -138.1 9.334e+03 2.183e-10
 83.98748   -135.5 9.301e+03 2.080e-10
 84.02702   -132.9 9.248e+03 1.967e-10
 84.04726   -130.2 9.212e+03 1.901e-10
 84.06703   -130.2 9.444e+03 2.481e-10
 84.10609   -127.4 9.427e+03 2.439e-10
 84.14563   -124.7 9.452e+03 2.447e-10
 84.18516   -122.0 9.495e+03 2.476e-10
 84.22470   -119.3 9.542e+03 2.509e-10
 84.26424   -116.7 9.592e+03 2.582e-10
 84.29291   -114.2 9.640e+03 2.627e-10
 84.31268   -114.2 9.585e+03 2.318e-10
 84.34331   -111.6 9.601e+03 2.291e-10
 84.38285   -109.2 9.611e+03 2.281e-10
 84.42238   -106.7 9.618e+03 2.277e-10
 84.46192   -104.3 9.627e+03 2.266e-10
 84.50146   -101.9 9.602e+03 2.190e-10
 84.53856    -99.5 9.513e+03 2.067e-10
 84.55832    -99.1 9.439e+03 2.003e-10
 84.58053    -96.7 9.306e+03 1.918e-10
 84.62007    -94.3 9.177e+03 1.808e-10
 84.64373    -91.9 9.056e+03 1.727e-10
 84.66349    -91.6 9.047e+03 1.699e-10
 84.69914    -89.2 8.942e+03 1.647e-10
 84.73868    -86.7 8.859e+03 1.598e-10
 84.77821    -84.3 8.799e+03 1.525e-10
 84.80397    -81.9 8.766e+03 1.432e-10
 84.82374    -81.3 8.668e+03 1.163e-10
 84.85729    -79.0 8.657e+03 1.143e-10
 84.89682    -76.7 8.655e+03 1.157e-10
 84.93636    -74.5 8.696e+03 1.215e-10
 84.97590    -72.3 8.739e+03 1.291e-10
 85.01543    -70.1 8.748e+03 1.357e-10
 85.04962    -67.9 8.743e+03 1.405e-10
 85.06939    -67.6 8.554e+03 1.404e-10
 85.09451    -65.4 8.548e+03 1.441e-10
 85.13404    -63.0 8.486e+03 1.418e-10
 85.17358    -60.7 8.403e+03 1.348e-10
 85.21312    -58.3 8.347e+03 1.271e-10
 85.25265    -55.8 8.313e+03 1.185e-10
 85.29219    -53.4 8.299e+03 1.089e-10
 85.31504    -51.0 8.301e+03 9.950e-11
 85.33480    -50.7 8.303e+03 9.439e-11
 85.37126    -48.5 8.347e+03 9.266e-11
 85.41080    -46.4 8.433e+03 9.301e-11
 85.45034    -44.5 8.537e+03 9.742e-11
 85.48987    -42.8 8.595e+03 1.118e-10
 85.52941    -41.1 8.594e+03 1.399e-10
 85.56068    -39.1 8.593e+03 1.761e-10
 85.58045    -38.3 8.600e+03 1.983e-10
 85.60848    -36.0 8.636e+03 2.079e-10
 85.64802    -33.9 8.606e+03 2.063e-10
 85.68756    -31.6 8.477e+03 1.879e-10
 85.72709    -29.4 8.383e+03 1.682e-10
 85.76663    -27.1 8.336e+03 1.548e-10
 85.80617    -24.8 8.349e+03 1.517e-10
 85.84570    -22.8 8.660e+03 1.682e-10
 85.88524    -22.1 9.324e+03 2.985e-10
 85.92478    -21.5 1.026e+04 6.686e-10
 85.96431    -19.9 1.133e+04 1.377e-09
 85.99387    -18.4 1.206e+04 2.038e-09
 86.01124    -17.8 1.225e+04 2.196e-09
 86.02112    -18.1 1.200e+04 1.859e-09
 86.03331    -17.7 1.193e+04 1.812e-09
 86.05307    -17.3 1.159e+04 1.487e-09
 86.07155    -17.6 1.100e+04 1.129e-09
 86.08143    -17.5 1.094e+04 1.017e-09
 86.09261    -17.6 1.035e+04 7.742e-10
 86.11238    -17.1 9.942e+03 5.891e-10
 86.13215    -16.6 9.697e+03 4.399e-10
 86.15192    -16.5 9.504e+03 3.253e-10
 86.17168    -16.4 9.458e+03 3.122e-10
 86.20143    -16.0 9.211e+03 2.561e-10
 86.24107    -14.9 8.820e+03 2.158e-10
 86.28061    -13.2 8.665e+03 2.049e-10
 86.31739    -11.4 8.532e+03 1.944e-10
 86.33716    -11.2 8.899e+03 2.503e-10
 86.35968     -9.5 8.739e+03 2.310e-10
 86.39922     -7.7 8.580e+03 2.150e-10
 86.43875     -5.5 8.457e+03 2.052e-10
 86.47829     -3.3 8.463e+03 1.844e-10
 86.51782     -1.2 8.355e+03 1.585e-10
 86.55736      0.8 8.285e+03 1.428e-10
 86.58281      2.8 8.390e+03 1.446e-10
 86.60258      1.6 9.143e+03 3.249e-10
 86.63643      4.0 9.119e+03 3.855e-10
 86.67597      6.9 9.118e+03 4.308e-10
 86.71551      9.4 9.200e+03 4.514e-10
 86.75504     11.6 9.225e+03 4.558e-10
 86.79458     13.7 9.258e+03 4.584e-10
 86.82846     15.9 9.283e+03 4.508e-10
 86.84822     15.3 9.226e+03 3.839e-10
 86.87365     17.2 9.140e+03 3.667e-10
 86.91319     19.1 8.997e+03 3.473e-10
 86.95273     21.2 8.756e+03 3.129e-10
 86.99226     23.5 8.626e+03 2.907e-10
 87.03180     25.6 8.693e+03 2.989e-10
 87.07134     27.4 8.909e+03 3.366e-10
 87.09387     29.0 9.279e+03 4.403e-10
 87.11364     28.1 9.442e+03 4.752e-10
 87.15041     29.7 9.924e+03 6.507e-10
 87.18995     31.4 1.035e+04 8.419e-10
 87.22948     33.0 1.038e+04 8.469e-10
 87.26902     34.8 1.013e+04 7.348e-10
 87.30856     36.8 9.615e+03 5.159e-10
 87.33952     38.9 9.006e+03 3.154e-10
 87.35929     37.5 8.805e+03 2.562e-10
 87.37914     39.6 8.353e+03 1.701e-10
 87.39891     40.3 8.698e+03 2.178e-10
 87.42717     42.3 8.191e+03 1.374e-10
 87.46670     44.6 7.987e+03 1.230e-10
 87.50624     47.3 8.014e+03 1.237e-10
 87.54578     50.1 8.134e+03 1.277e-10
 87.58517     52.6 8.448e+03 1.430e-10
 87.62470     53.2 9.857e+03 4.626e-10
 87.66439     56.0 9.966e+03 5.681e-10
 87.70392     58.9 1.011e+04 6.653e-10
 87.74346     61.9 1.021e+04 7.178e-10
 87.78300     64.9 1.020e+04 6.982e-10
 87.82253     67.9 1.011e+04 6.292e-10
 87.85058     71.0 9.875e+03 5.095e-10
 87.87035     69.2 1.008e+04 5.736e-10
 87.90161     72.4 9.725e+03 4.732e-10
 87.94114     75.8 9.527e+03 4.199e-10
 87.98068     78.8 9.440e+03 3.949e-10
 88.02022     82.0 9.410e+03 3.845e-10
 88.05975     85.5 9.348e+03 3.712e-10
 88.09623     89.0 9.245e+03 3.517e-10
 88.11590     89.7 9.548e+03 4.601e-10
 88.12875     91.6 9.486e+03 4.393e-10
 88.14852     93.4 9.465e+03 4.256e-10
 88.16828     95.1 9.445e+03 4.167e-10
 88.18805     96.6 9.407e+03 4.125e-10
 88.20782     98.2 9.400e+03 4.137e-10
 88.22759     99.9 9.409e+03 4.206e-10
 88.23862    101.4 9.487e+03 4.399e-10
 88.24851    101.0 9.797e+03 5.299e-10
 88.26713    102.2 9.920e+03 5.659e-10
 88.28689    103.3 1.007e+04 6.126e-10
 88.30666    104.3 1.032e+04 6.807e-10
 88.32643    105.2 1.068e+04 7.913e-10
 88.34620    105.8 1.112e+04 9.657e-10
 88.36145    106.3 1.159e+04 1.213e-09
 88.37133    105.5 1.252e+04 1.730e-09
 88.38573    106.0 1.290e+04 2.099e-09
 88.40550    106.5 1.326e+04 2.510e-09
 88.42527    107.0 1.358e+04 2.916e-09
 88.44504    107.4 1.383e+04 3.240e-09
 88.46481    107.6 1.395e+04 3.365e-09
 88.48427    107.5 1.392e+04 3.281e-09
 88.49416    106.5 1.392e+04 3.093e-09
 88.50434    105.7 1.386e+04 2.886e-09
 88.52411    104.2 1.382e+04 2.759e-09
 88.54388    102.3 1.392e+04 2.768e-09
 88.56365    100.3 1.405e+04 2.920e-09
 88.58342     98.7 1.412e+04 3.223e-09
 88.60319     97.6 1.409e+04 3.507e-09
 88.61698     96.7 1.400e+04 3.522e-09
 88.62686     95.1 1.415e+04 3.843e-09
 88.64272     94.5 1.396e+04 3.584e-09
 88.66249     93.8 1.377e+04 3.228e-09
 88.68226     92.9 1.362e+04 2.850e-09
 88.70203     91.9 1.368e+04 2.770e-09
 88.72180     90.5 1.374e+04 2.857e-09
 88.73980     89.1 1.401e+04 3.325e-09
 88.74969     86.6 1.415e+04 4.211e-09
 88.75654     86.3 1.504e+04 5.648e-09
 88.76643     87.4 1.449e+04 4.718e-09
 88.78110     87.3 1.555e+04 6.395e-09
 88.80087     87.4 1.647e+04 7.904e-09
 88.82064     87.5 1.704e+04 9.080e-09
 88.84041     87.5 1.743e+04 9.621e-09
 88.86017     87.7 1.735e+04 8.533e-09
 88.87251     87.8 1.704e+04 6.449e-09
 88.88240     84.8 1.538e+04 3.079e-09
 88.89971     83.9 1.417e+04 1.901e-09
 88.91948     82.8 1.282e+04 1.211e-09
 88.93925     81.8 1.162e+04 8.510e-10
 88.95902     81.4 1.077e+04 6.684e-10
 88.97878     81.3 1.044e+04 5.958e-10
 88.99533     81.6 1.056e+04 5.884e-10
 89.00522     80.6 1.016e+04 5.420e-10
 89.01832     81.2 1.037e+04 5.570e-10
 89.03809     81.8 1.063e+04 5.905e-10
 89.05786     82.3 1.085e+04 6.470e-10
 89.07763     82.8 1.106e+04 7.242e-10
 89.09739     83.3 1.124e+04 8.177e-10
 89.11716     83.9 1.139e+04 9.250e-10
 89.12804     84.5 1.153e+04 1.038e-09
 89.13793     84.1 1.186e+04 1.372e-09
 89.15670     84.9 1.199e+04 1.475e-09
 89.17647     85.7 1.208e+04 1.610e-09
 89.19624     86.5 1.212e+04 1.673e-09
 89.21600     87.2 1.220e+04 1.676e-09
 89.23577     87.9 1.227e+04 1.676e-09
 89.25087     88.6 1.234e+04 1.700e-09
 89.26075     88.5 1.249e+04 1.928e-09
 89.27531     89.1 1.247e+04 1.885e-09
 89.29508     89.7 1.244e+04 1.860e-09
 89.31485     90.4 1.244e+04 1.862e-09
 89.33461     91.0 1.249e+04 1.900e-09
 89.35438     91.4 1.268e+04 2.007e-09
 89.37369     91.2 1.307e+04 2.281e-09
 89.38357     91.4 1.259e+04 1.966e-09
 89.39392     91.3 1.306e+04 2.323e-09
 89.41369     91.4 1.382e+04 3.004e-09
 89.43346     91.7 1.462e+04 3.984e-09
 89.45322     91.9 1.506e+04 4.683e-09
 89.46800     92.1 1.509e+04 4.723e-09
 89.47784     92.1 1.525e+04 4.868e-09
 89.48772     92.2 1.555e+04 5.147e-09
 89.49760     92.3 1.581e+04 5.339e-09
 89.50630     92.4 1.592e+04 5.408e-09
 89.51623     92.8 1.492e+04 3.975e-09
 89.53230     92.8 1.498e+04 3.965e-09
 89.55207     92.9 1.498e+04 3.910e-09
 89.57183     93.2 1.490e+04 3.739e-09
 89.59160     93.5 1.469e+04 3.480e-09
 89.61137     93.7 1.458e+04 3.342e-09
 89.62922     93.9 1.454e+04 3.351e-09
 89.63911     95.1 1.361e+04 2.360e-09
 89.65091     95.7 1.384e+04 2.541e-09
 89.67068     96.3 1.417e+04 2.804e-09
 89.69044     96.7 1.455e+04 3.190e-09
 89.71021     96.8 1.499e+04 3.796e-09
 89.72998     96.4 1.559e+04 4.813e-09
 89.74975     95.3 1.643e+04 6.661e-09
 89.76193     94.1 1.763e+04 9.449e-09
 89.77181     95.9 1.940e+04 1.142e-08
 89.78429     94.2 1.974e+04 1.429e-08
 89.79413     92.6 2.004e+04 1.748e-08
 89.80401     91.0 2.065e+04 2.136e-08
 89.81390     88.9 2.143e+04 2.600e-08
 89.82324     86.4 2.159e+04 2.636e-08
 89.82819     85.8 2.268e+04 3.731e-08
 89.83367     83.3 2.253e+04 3.572e-08
 89.84355     81.7 2.185e+04 3.064e-08
 89.85343     80.6 2.092e+04 2.454e-08
 89.86831     80.0 1.999e+04 1.784e-08
 89.88475     79.0 1.807e+04 1.061e-08
 89.89464     78.1 1.850e+04 9.679e-09
 89.90789     76.5 1.634e+04 5.500e-09
 89.92766     76.0 1.482e+04 3.743e-09
 89.94743     76.3 1.393e+04 2.931e-09
 89.96720     77.3 1.343e+04 2.566e-09
 89.98697     78.6 1.325e+04 2.475e-09
 90.00674     79.8 1.323e+04 2.468e-09
 90.01746     81.0 1.323e+04 2.498e-09
 90.02734     80.8 1.223e+04 1.636e-09
 90.04627     81.9 1.229e+04 1.747e-09
 90.06604     83.0 1.242e+04 1.902e-09
 90.08581     84.1 1.256e+04 2.050e-09
 90.10558     85.1 1.263e+04 2.108e-09
 90.12425     85.9 1.262e+04 2.100e-09
 90.13413     86.4 1.263e+04 2.103e-09
 90.14028     87.1 1.255e+04 2.032e-09
 90.15017     87.3 1.166e+04 1.425e-09
 90.16488     88.0 1.149e+04 1.327e-09
 90.18465     88.6 1.126e+04 1.214e-09
 90.20442     89.0 1.109e+04 1.153e-09
 90.22419     89.3 1.108e+04 1.156e-09
 90.24396     89.5 1.115e+04 1.190e-09
 90.26311     89.4 1.140e+04 1.334e-09
 90.27299     90.3 1.095e+04 1.051e-09
 90.28349     90.2 1.141e+04 1.296e-09
 90.30326     90.1 1.201e+04 1.686e-09
 90.32303     90.2 1.265e+04 2.229e-09
 90.34280     90.4 1.324e+04 2.874e-09
 90.36257     90.8 1.368e+04 3.418e-09
 90.38233     91.3 1.398e+04 3.753e-09
 90.39582     91.8 1.401e+04 3.737e-09
 90.40570     92.5 1.417e+04 4.045e-09
 90.42187     93.0 1.415e+04 3.997e-09
 90.44164     93.5 1.399e+04 3.695e-09
 90.46141     94.2 1.360e+04 3.111e-09
 90.48118     94.9 1.307e+04 2.423e-09
 90.50094     95.6 1.245e+04 1.772e-09
 90.51864     96.3 1.177e+04 1.236e-09
 90.52852     96.9 1.231e+04 1.728e-09
 90.54048     97.7 1.174e+04 1.263e-09
 90.56025     98.4 1.119e+04 9.127e-10
 90.58002     99.2 1.070e+04 6.722e-10
 90.59979    100.0 1.027e+04 5.194e-10
 90.61955    100.9 9.940e+03 4.305e-10
 90.63932    102.1 9.757e+03 3.846e-10
 90.65135    103.4 9.640e+03 3.670e-10
 90.66123    103.9 9.946e+03 4.478e-10
 90.67886    105.2 9.767e+03 4.038e-10
 90.69863    106.6 9.648e+03 3.702e-10
 90.71840    108.1 9.618e+03 3.477e-10
 90.73816    109.5 9.629e+03 3.251e-10
 90.75793    111.0 9.672e+03 3.017e-10
 90.77417    112.5 9.803e+03 2.902e-10
 90.78405    112.6 9.529e+03 2.595e-10
 90.79747    114.1 9.467e+03 2.400e-10
 90.81724    115.7 9.473e+03 2.320e-10
 90.83701    117.2 9.618e+03 2.315e-10
 90.85677    118.6 1.038e+04 2.417e-10
 90.87654    119.5 1.226e+04 2.684e-10
 90.89631    119.6 1.729e+04 3.389e-10
 90.90688    119.4 2.530e+04 6.469e-10
 90.91676    123.5 1.034e+04 2.450e-10
 90.93585    124.3 1.227e+04 2.824e-10
 90.95562    124.6 1.547e+04 3.869e-10
 90.97538    124.7 1.938e+04 6.411e-10
 90.99515    125.0 2.340e+04 1.189e-09
 91.01492    125.1 2.654e+04 2.331e-09
 91.02965    125.4 2.641e+04 2.713e-09
 91.03954    128.4 1.837e+04 1.114e-09
 91.05446    128.3 2.407e+04 2.357e-09
 91.07423    129.2 2.700e+04 4.405e-09
 91.08900    128.6 2.974e+04 1.011e-08
 91.09596    129.5 2.933e+04 1.754e-08
 91.10090    131.1 2.674e+04 4.628e-09
 91.10872    131.5 2.857e+04 6.712e-09
 91.11861    132.0 2.922e+04 9.615e-09
 91.12849    132.5 2.878e+04 1.280e-08
 91.13837    133.0 2.778e+04 1.526e-08
 91.14826    133.5 2.694e+04 1.716e-08
 91.15737    134.1 2.619e+04 1.918e-08
 91.16236    135.9 2.237e+04 5.385e-09
 91.16808    136.1 2.454e+04 8.265e-09
 91.17791    136.8 2.521e+04 1.119e-08
 91.18780    137.3 2.536e+04 1.407e-08
 91.19768    137.7 2.523e+04 1.685e-08
 91.20756    138.0 2.478e+04 1.974e-08
 91.21745    138.6 2.401e+04 2.254e-08
 91.22372    139.4 2.326e+04 2.489e-08
 91.22867    140.7 2.337e+04 1.155e-08
 91.23722    141.6 2.332e+04 1.395e-08
 91.24710    142.6 2.312e+04 1.639e-08
 91.25698    143.7 2.287e+04 1.896e-08
 91.26687    144.7 2.263e+04 2.181e-08
 91.27675    145.6 2.240e+04 2.490e-08
 91.28514    146.5 2.223e+04 2.785e-08
 91.29008    147.1 2.271e+04 1.578e-08
 91.29652    147.9 2.249e+04 1.864e-08
 91.30641    149.0 2.225e+04 2.164e-08
 91.31629    150.1 2.202e+04 2.487e-08
 91.32617    151.3 2.189e+04 2.818e-08
 91.33606    152.5 2.180e+04 3.133e-08
 91.34594    153.5 2.175e+04 3.370e-08
 91.35149    154.5 2.172e+04 3.540e-08
 91.35643    154.9 2.241e+04 2.710e-08
 91.36571    156.1 2.235e+04 3.092e-08
 91.37559    157.3 2.234e+04 3.479e-08
 91.38548    158.4 2.243e+04 3.840e-08
 91.39536    159.5 2.262e+04 4.147e-08
 91.40525    160.5 2.291e+04 4.379e-08
 91.41290    161.4 2.332e+04 4.534e-08
 91.41784    162.2 2.317e+04 4.047e-08
 91.42502    163.1 2.328e+04 4.398e-08
 91.43490    163.9 2.345e+04 4.607e-08
 91.44478    164.8 2.373e+04 4.698e-08
 91.45467    165.7 2.417e+04 4.730e-08
 91.46455    166.7 2.483e+04 4.774e-08
 91.47431    167.7 2.569e+04 4.835e-08
 91.47926    169.2 2.430e+04 4.267e-08
 91.48432    170.4 2.514e+04 4.631e-08
 91.49420    171.4 2.622e+04 5.099e-08
 91.50175    172.0 2.741e+04 5.523e-08
 91.50669    170.7 2.789e+04 5.495e-08
 91.51397    171.3 2.833e+04 5.646e-08
 91.52386    171.8 2.817e+04 5.752e-08
 91.53374    172.4 2.799e+04 5.721e-08
 91.54067    172.8 2.751e+04 5.626e-08
 91.54561    174.9 2.990e+04 5.975e-08
 91.55351    175.3 2.999e+04 5.803e-08
 91.56339    175.7 2.994e+04 5.418e-08
 91.57328    176.2 2.942e+04 4.874e-08
 91.58316    176.7 2.849e+04 4.232e-08
 91.59305    177.0 2.720e+04 3.589e-08
 91.60208    177.2 2.574e+04 3.033e-08
 91.60702    180.2 3.213e+04 3.887e-08
 91.61281    180.4 3.139e+04 3.266e-08
 91.62270    180.4 3.002e+04 2.698e-08
 91.63258    180.3 2.802e+04 2.290e-08
 91.64247    180.2 2.612e+04 2.074e-08
 91.65235    180.0 2.529e+04 2.055e-08
 91.66223    179.5 2.529e+04 2.117e-08
 91.66843    178.6 2.559e+04 2.361e-08
 91.67337    182.5 2.867e+04 1.935e-08
 91.68200    181.2 2.804e+04 2.017e-08
 91.69189    179.4 2.781e+04 2.393e-08
 91.70177    177.3 2.826e+04 3.185e-08
 91.71166    175.1 2.854e+04 4.512e-08
 91.72154    173.3 2.768e+04 7.151e-08
 91.72984    172.0 2.647e+04 1.243e-07
 91.73479    173.1 6.595e+04 5.109e-08
 91.74131    173.4 5.909e+04 6.436e-08
 91.75119    171.6 3.292e+04 2.274e-07
 91.76108    167.9 2.527e+04 4.083e-07
 91.77096    165.6 2.405e+04 5.394e-07
 91.77835    164.2 2.457e+04 6.119e-07
 91.78327    163.2 2.563e+04 6.598e-07
 91.78821    162.3 2.739e+04 6.792e-07
 91.79315    161.0 3.030e+04 6.353e-07
 91.79615    160.0 3.249e+04 5.947e-07
 91.79862    159.8 1.851e+04 1.462e-05
 91.80304    161.8 1.816e+04 1.673e-05
 91.80798    165.3 1.796e+04 1.965e-05
 91.81292    169.8 1.772e+04 2.733e-05
 91.81786    173.4 1.605e+04 9.759e-05
 91.82156    175.2 1.438e+04 4.120e-04
 91.82401    175.2 1.170e+04 3.499e-03
 91.82649    171.7 1.105e+04 1.158e-02
 91.82807    161.0 1.087e+04 1.443e-02
 91.82868    168.2 9.179e+03 1.120e-01
 91.82956    159.3 9.327e+03 9.562e-02
 91.83080    156.2 8.075e+03 1.005e-01
 91.83203    148.3 8.233e+03 6.757e-02
 91.83389    133.9 9.772e+03 4.449e-02
 91.83637    122.9 1.034e+04 1.060e-02
 91.83884    109.5 1.223e+04 2.048e-03
 91.84131     90.6 1.230e+04 1.975e-03
 91.84342     67.6 1.130e+04 4.238e-03
 91.84466     62.2 1.313e+04 1.219e-03
 91.84607     42.8 1.054e+04 9.007e-03
 91.84731     43.9 1.106e+04 6.824e-03
 91.84872     31.8 9.780e+03 2.338e-02
 91.85120     28.1 9.600e+03 2.890e-02
 91.85367     25.5 9.944e+03 2.420e-02
 91.85614     26.0 1.100e+04 8.337e-03
 91.85861     25.2 1.360e+04 5.333e-04
 91.86002     30.2 1.693e+04 2.495e-05
 91.86250     22.2 1.791e+04 1.010e-05
 91.86728     21.3 2.176e+04 1.890e-06
 91.87222     20.6 2.736e+04 3.524e-07
 91.87966      7.9 5.363e+04 1.581e-08
 91.88957    -14.9 7.327e+04 2.097e-09
 91.89945    -57.8 3.576e+04 6.201e-10
 91.90934    -61.4 2.707e+04 6.528e-10
 91.91907    -68.5 1.209e+04 7.554e-10
 91.92900    -67.2 1.306e+04 9.355e-10
 91.94403    -63.3 1.211e+04 8.664e-10
 91.96380    -60.0 1.169e+04 7.904e-10
 91.98357    -56.6 1.130e+04 7.144e-10
 92.00334    -53.3 1.099e+04 6.448e-10
 92.02310    -50.1 1.074e+04 5.785e-10
 92.04194    -47.1 1.044e+04 5.047e-10
 92.05183    -46.5 1.084e+04 5.892e-10
 92.06264    -43.5 1.039e+04 4.923e-10
 92.08241    -40.7 1.008e+04 4.202e-10
 92.10218    -38.0 9.868e+03 3.660e-10
 92.13193    -34.7 9.650e+03 3.286e-10
 92.16496    -29.3 9.281e+03 2.926e-10
 92.18473    -28.7 9.607e+03 3.259e-10
 92.21110    -23.6 9.054e+03 2.557e-10
 92.25064    -19.2 8.876e+03 2.391e-10
 92.29017    -14.6 8.827e+03 2.430e-10
 92.32971    -10.6 8.954e+03 2.857e-10
 92.36924     -6.4 9.429e+03 3.836e-10
 92.39880     -3.7 9.890e+03 5.025e-10
 92.41847     -2.4 1.020e+04 5.850e-10
 92.43018     -0.6 1.051e+04 7.246e-10
 92.44007     -0.9 1.064e+04 7.099e-10
 92.45801      0.1 1.109e+04 9.239e-10
 92.47778      1.3 1.151e+04 1.189e-09
 92.49754      2.7 1.192e+04 1.464e-09
 92.51731      4.2 1.232e+04 1.728e-09
 92.53708      5.7 1.263e+04 1.912e-09
 92.55301      7.0 1.262e+04 1.907e-09
 92.56289      7.2 1.292e+04 2.424e-09
 92.57662      8.7 1.273e+04 2.278e-09
 92.59639     10.0 1.244e+04 1.995e-09
 92.61615     10.9 1.209e+04 1.683e-09
 92.63592     11.7 1.174e+04 1.423e-09
 92.65569     12.2 1.149e+04 1.258e-09
 92.67546     13.2 1.117e+04 1.109e-09
 92.68571     13.7 1.124e+04 1.125e-09
 92.69570     14.3 1.132e+04 1.169e-09
 92.72507     16.1 1.114e+04 1.095e-09
 92.75463     17.3 1.100e+04 1.056e-09
 92.77430     18.3 1.105e+04 1.064e-09
 92.79407     19.4 1.108e+04 1.069e-09
 92.80854     20.4 1.114e+04 1.082e-09
 92.81842     21.0 1.088e+04 9.734e-10
 92.83360     22.1 1.100e+04 1.002e-09
 92.85337     23.0 1.110e+04 1.025e-09
 92.86955     24.0 1.117e+04 1.043e-09
 92.87944     23.8 1.092e+04 9.121e-10
 92.89291     24.7 1.099e+04 9.341e-10
 92.91268     25.7 1.117e+04 9.912e-10
 92.93136     26.1 1.160e+04 1.140e-09
 92.94125     27.8 1.109e+04 9.379e-10
 92.95221     28.2 1.158e+04 1.077e-09
 92.97198     28.1 1.264e+04 1.450e-09
 92.99175     27.3 1.379e+04 2.226e-09
 93.01152     26.4 1.456e+04 3.642e-09
 93.03129     26.8 1.496e+04 5.629e-09
 93.05106     27.9 1.551e+04 7.602e-09
 93.06407     28.4 1.604e+04 8.952e-09
 93.07395     29.8 1.640e+04 9.550e-09
 93.09059     30.1 1.684e+04 9.944e-09
 93.11036     29.7 1.717e+04 9.700e-09
 93.13013     28.1 1.753e+04 8.551e-09
 93.14990     25.5 1.706e+04 7.062e-09
 93.16967     23.0 1.594e+04 5.784e-09
 93.18689     21.9 1.494e+04 4.791e-09
 93.19678     23.0 1.501e+04 4.677e-09
 93.20920     22.9 1.412e+04 3.758e-09
 93.22897     23.3 1.353e+04 2.821e-09
 93.24874     23.3 1.293e+04 1.928e-09
 93.26851     23.1 1.210e+04 1.200e-09
 93.28828     22.4 1.122e+04 7.606e-10
 93.30804     22.6 1.039e+04 5.082e-10
 93.31960     22.7 9.968e+03 4.073e-10
 93.32948     23.2 1.003e+04 3.769e-10
 93.34758     24.2 9.492e+03 2.753e-10
 93.36735     24.5 9.427e+03 2.613e-10
 93.39710     26.5 9.051e+03 2.100e-10
 93.43274     29.3 8.883e+03 1.910e-10
 93.45250     29.4 9.081e+03 1.820e-10
 93.47627     32.3 8.951e+03 1.756e-10
 93.51581     34.9 8.963e+03 1.805e-10
 93.55534     37.4 9.020e+03 1.979e-10
 93.59488     39.7 9.140e+03 2.274e-10
 93.63442     41.9 9.301e+03 2.504e-10
 93.67395     43.9 9.371e+03 2.497e-10
 93.69815     45.7 9.417e+03 2.326e-10
 93.71792     46.1 9.605e+03 2.707e-10
 93.75303     47.8 9.626e+03 2.409e-10
 93.79256     49.1 9.607e+03 2.163e-10
 93.83210     50.3 9.601e+03 2.134e-10
 93.87164     51.7 9.622e+03 2.196e-10
 93.91117     53.3 9.645e+03 2.332e-10
 93.94380     54.9 9.695e+03 2.439e-10
 93.96357     55.1 9.793e+03 2.168e-10
 93.99025     56.5 9.757e+03 2.087e-10
 94.02978     58.1 9.714e+03 1.946e-10
 94.06932     59.6 9.682e+03 1.710e-10
 94.10886     61.0 9.546e+03 1.581e-10
 94.14839     62.5 9.467e+03 1.601e-10
 94.18793     64.2 9.369e+03 1.697e-10
 94.20921     66.1 9.346e+03 1.957e-10
 94.22898     66.6 9.462e+03 1.092e-10
 94.26700     68.5 9.430e+03 1.289e-10
 94.30654     70.4 9.486e+03 1.633e-10
 94.34608     72.4 9.667e+03 2.113e-10
 94.38561     74.1 9.891e+03 2.698e-10
 94.42515     75.7 1.009e+04 3.279e-10
 94.45486     77.2 1.022e+04 3.679e-10
 94.47463     77.4 9.898e+03 3.070e-10
 94.50422     78.7 9.964e+03 3.152e-10
 94.54376     79.9 9.977e+03 3.105e-10
 94.58330     80.9 9.969e+03 3.013e-10
 94.62283     81.8 9.973e+03 3.023e-10
 94.66237     82.8 1.001e+04 3.115e-10
 94.70051     83.8 1.010e+04 3.403e-10
 94.72028     84.5 1.013e+04 3.446e-10
 94.74144     85.3 1.035e+04 4.148e-10
 94.78098     86.1 1.056e+04 4.988e-10
 94.82052     87.0 1.075e+04 5.831e-10
 94.86005     87.5 1.084e+04 6.385e-10
 94.89959     87.9 1.079e+04 6.420e-10
 94.93913     88.6 1.070e+04 6.110e-10
 94.96592     89.5 1.054e+04 5.447e-10
 94.98569     89.5 1.086e+04 6.806e-10
 95.01820     90.2 1.075e+04 6.099e-10
 95.05774     90.9 1.069e+04 5.621e-10
 95.09727     91.6 1.074e+04 5.432e-10
 95.13681     92.1 1.077e+04 5.327e-10
 95.17634     92.6 1.077e+04 5.141e-10
 95.21157     93.2 1.069e+04 4.850e-10
 95.23134     93.3 1.072e+04 4.986e-10
 95.25542     94.2 1.059e+04 4.549e-10
 95.29495     95.3 1.043e+04 4.097e-10
 95.33449     96.3 1.029e+04 3.733e-10
 95.37403     97.2 1.014e+04 3.438e-10
 95.41356     98.3 9.940e+03 3.233e-10
 95.45310     99.7 9.801e+03 3.217e-10
 95.47699    101.3 9.774e+03 3.304e-10
 95.49675    101.3 9.970e+03 4.035e-10
 95.53217    103.0 9.904e+03 4.420e-10
 95.57171    104.6 1.002e+04 5.183e-10
 95.60516    106.0 1.028e+04 6.322e-10
 95.62493    106.3 1.016e+04 5.851e-10
 95.65078    107.5 1.028e+04 6.603e-10
 95.69032    108.5 1.046e+04 7.670e-10
 95.71988    108.8 1.066e+04 8.848e-10
 95.73232    109.1 1.082e+04 9.892e-10
 95.74221    108.6 1.073e+04 9.486e-10
 95.75931    108.9 1.094e+04 1.067e-09
 95.77908    109.1 1.119e+04 1.209e-09
 95.79885    109.4 1.143e+04 1.359e-09
 95.81862    109.7 1.155e+04 1.470e-09
 95.83839    109.8 1.154e+04 1.482e-09
 95.85515    110.0 1.144e+04 1.445e-09
 95.86503    109.4 1.142e+04 1.489e-09
 95.87792    109.7 1.124e+04 1.412e-09
 95.89769    110.2 1.094e+04 1.258e-09
 95.91746    110.7 1.058e+04 1.078e-09
 95.93723    111.2 1.023e+04 9.186e-10
 95.95700    111.6 9.953e+03 8.004e-10
 95.97677    112.0 9.748e+03 7.214e-10
 95.98785    112.4 9.617e+03 6.912e-10
 95.99774    112.3 9.546e+03 6.715e-10
 96.01630    112.9 9.474e+03 6.590e-10
 96.03607    113.5 9.464e+03 6.594e-10
 96.05584    114.2 9.466e+03 6.614e-10
 96.07561    114.8 9.465e+03 6.613e-10
 96.09538    115.4 9.452e+03 6.574e-10
 96.11068    115.9 9.400e+03 6.455e-10
 96.12056    115.7 9.237e+03 5.798e-10
 96.13491    116.2 9.220e+03 5.718e-10
 96.15468    116.7 9.230e+03 5.684e-10
 96.17445    117.1 9.244e+03 5.662e-10
 96.19422    117.7 9.228e+03 5.548e-10
 96.21399    117.9 9.195e+03 5.457e-10
 96.23360    119.1 9.063e+03 5.143e-10
 96.25346    118.8 8.937e+03 4.539e-10
 96.28337    119.8 8.925e+03 4.528e-10
 96.32291    120.8 8.877e+03 4.441e-10
 96.36244    121.8 8.829e+03 4.317e-10
 96.40198    123.0 8.719e+03 4.154e-10
 96.44152    124.4 8.596e+03 3.902e-10
 96.47934    125.9 8.545e+03 3.760e-10
 96.49911    125.2 8.154e+03 3.047e-10
 96.52059    127.0 8.180e+03 3.004e-10
 96.56013    128.6 8.334e+03 3.172e-10
 96.59966    129.8 8.572e+03 3.585e-10
 96.62184    130.6 8.679e+03 3.900e-10
 96.63162    130.5 8.701e+03 3.863e-10
 96.64889    130.7 8.878e+03 4.336e-10
 96.66866    131.0 9.102e+03 5.188e-10
 96.68843    131.5 9.322e+03 6.142e-10
 96.70819    132.0 9.484e+03 6.894e-10
 96.72796    132.7 9.559e+03 7.252e-10
 96.74456    133.3 9.565e+03 7.285e-10
 96.75445    133.0 9.446e+03 6.703e-10
 96.76750    133.8 9.395e+03 6.467e-10
 96.78727    134.5 9.319e+03 6.173e-10
 96.80704    135.3 9.294e+03 6.008e-10
 96.82680    136.1 9.305e+03 6.018e-10
 96.84657    136.8 9.360e+03 6.133e-10
 96.86634    137.6 9.499e+03 6.566e-10
 96.87727    138.3 9.721e+03 7.416e-10
 96.88716    138.8 9.502e+03 5.882e-10
 96.90588    139.8 9.880e+03 6.903e-10
 96.92565    140.1 1.046e+04 8.759e-10
 96.94541    140.2 1.132e+04 1.229e-09
 96.96518    140.2 1.257e+04 1.964e-09
 96.98256    140.4 1.390e+04 3.257e-09
 96.99245    139.1 1.441e+04 3.643e-09
 96.99973    139.5 1.482e+04 4.292e-09
 97.00494    139.2 1.558e+04 5.181e-09
 97.00993    137.8 1.657e+04 4.443e-09
 97.01950    137.4 1.766e+04 6.077e-09
 97.02933    136.5 1.867e+04 8.666e-09
 97.03922    136.3 1.938e+04 1.230e-08
 97.04910    136.3 1.973e+04 1.651e-08
 97.05898    136.6 1.980e+04 2.066e-08
 97.06635    137.0 1.971e+04 2.376e-08
 97.07129    136.8 2.000e+04 2.340e-08
 97.07875    137.1 1.982e+04 2.494e-08
 97.08864    137.4 1.978e+04 2.476e-08
 97.09852    137.6 1.959e+04 2.381e-08
 97.10840    137.6 1.934e+04 2.153e-08
 97.11829    137.5 1.897e+04 1.824e-08
 97.12776    136.9 1.848e+04 1.524e-08
 97.13271    137.2 1.839e+04 1.323e-08
 97.14305    137.4 1.753e+04 1.015e-08
 97.16286    137.5 1.675e+04 7.234e-09
 97.18263    137.4 1.577e+04 4.623e-09
 97.20240    136.7 1.465e+04 2.859e-09
 97.22217    135.8 1.345e+04 1.818e-09
 97.24194    135.3 1.233e+04 1.239e-09
 97.25563    135.3 1.151e+04 9.131e-10
 97.26551    134.9 1.061e+04 7.480e-10
 97.28147    135.5 1.040e+04 6.094e-10
 97.30124    136.2 1.014e+04 4.771e-10
 97.32101    136.3 1.003e+04 4.495e-10
 97.35076    137.7 9.775e+03 3.676e-10
 97.39040    139.2 9.473e+03 2.918e-10
 97.42993    140.5 9.228e+03 2.418e-10
 97.46947    141.5 9.248e+03 2.377e-10
 97.50147    142.2 9.310e+03 2.419e-10
 97.52124    141.8 8.972e+03 1.877e-10
 97.54854    142.4 9.025e+03 1.962e-10
 97.58808    143.0 9.193e+03 2.251e-10
 97.62762    143.6 9.377e+03 2.675e-10
 97.66715    144.1 9.485e+03 3.072e-10
 97.70669    144.1 9.504e+03 3.335e-10
 97.74623    143.9 9.502e+03 3.408e-10
 97.76689    143.6 9.488e+03 3.401e-10
 97.78665    142.9 9.291e+03 3.134e-10
 97.82530    142.4 9.205e+03 3.068e-10
 97.86484    141.9 9.091e+03 2.888e-10
 97.90437    141.4 9.109e+03 2.938e-10
 97.94391    141.4 9.379e+03 3.229e-10
 97.97346    139.5 1.002e+04 4.367e-10
 97.99313    137.5 1.051e+04 6.163e-10
 98.01234    135.9 1.097e+04 8.767e-10
 98.02222    135.4 1.098e+04 9.317e-10
 98.03267    134.4 1.172e+04 1.298e-09
 98.05244    133.5 1.241e+04 1.688e-09
 98.07221    132.4 1.282e+04 1.815e-09
 98.09198    131.1 1.281e+04 1.787e-09
 98.11174    130.1 1.258e+04 1.609e-09
 98.13151    129.4 1.206e+04 1.284e-09
 98.14504    128.4 1.141e+04 9.661e-10
 98.15493    127.7 1.139e+04 1.018e-09
 98.17105    126.6 1.079e+04 7.390e-10
 98.19082    125.3 1.045e+04 5.953e-10
 98.22057    125.7 1.021e+04 4.851e-10
 98.25818    126.0 9.758e+03 3.907e-10
 98.27795    124.1 1.006e+04 4.669e-10
 98.29974    124.5 9.905e+03 4.380e-10
 98.33927    125.4 9.802e+03 4.104e-10
 98.36035    126.3 9.657e+03 3.746e-10
 98.38012    125.8 9.611e+03 3.717e-10
 98.41835    126.9 9.469e+03 3.239e-10
 98.45788    128.1 9.504e+03 3.173e-10
 98.49742    129.5 9.594e+03 3.226e-10
 98.52360    130.9 9.912e+03 3.492e-10
 98.53338    128.6 1.023e+04 4.166e-10
 98.54665    129.0 1.048e+04 4.621e-10
 98.56641    129.0 1.074e+04 5.550e-10
 98.58618    129.1 1.096e+04 6.764e-10
 98.60595    129.4 1.122e+04 8.244e-10
 98.62572    129.9 1.159e+04 1.007e-09
 98.64549    130.5 1.206e+04 1.224e-09
 98.65611    130.9 1.259e+04 1.468e-09
 98.66599    129.0 1.307e+04 1.624e-09
 98.68502    128.6 1.351e+04 1.881e-09
 98.70479    128.1 1.389e+04 2.160e-09
 98.72456    127.7 1.417e+04 2.462e-09
 98.74433    127.4 1.440e+04 2.787e-09
 98.76410    127.4 1.459e+04 3.089e-09
 98.77893    127.6 1.488e+04 3.414e-09
 98.78882    125.2 1.451e+04 2.643e-09
 98.80363    125.7 1.419e+04 2.328e-09
 98.82340    126.0 1.392e+04 1.912e-09
 98.84317    125.4 1.390e+04 1.603e-09
 98.86294    124.4 1.401e+04 1.454e-09
 98.87772    123.2 1.475e+04 1.552e-09
 98.88755    118.6 1.966e+04 1.760e-09
 98.89744    107.8 2.865e+04 4.020e-09
 98.90660     98.0 2.830e+04 2.186e-08
 98.91154     93.4 2.550e+04 5.860e-08
 98.91720     90.3 2.345e+04 1.719e-07
 98.92709     88.7 2.253e+04 2.777e-07
 98.93697     87.4 2.247e+04 2.757e-07
 98.94686     86.9 2.240e+04 2.325e-07
 98.95674     86.7 2.340e+04 1.213e-07
 98.96663     85.3 2.626e+04 3.618e-08
 98.97295     79.0 3.199e+04 5.337e-09
 98.97790     70.5 3.189e+04 1.733e-09
 98.98639     58.9 1.736e+04 1.272e-09
 99.00127     52.2 1.237e+04 7.561e-10
 99.02109     45.4 9.875e+03 4.064e-10
 99.03446     43.0 9.952e+03 3.144e-10
 99.04435     43.0 9.975e+03 2.976e-10
 99.06062     41.7 9.887e+03 2.958e-10
 99.09037     41.7 9.978e+03 2.876e-10
 99.13001     42.0 1.000e+04 2.864e-10
 99.16954     43.3 9.913e+03 2.819e-10
 99.19910     43.9 9.958e+03 3.015e-10
 99.21877     44.3 1.027e+04 3.758e-10
 99.23854     44.4 1.075e+04 5.129e-10
 99.25831     44.0 1.175e+04 8.278e-10
 99.27807     43.0 1.425e+04 1.712e-09
 99.28999     42.3 1.688e+04 3.466e-09
 99.29988     41.0 1.628e+04 2.919e-09
 99.31262     41.0 1.731e+04 4.123e-09
 99.32246     40.3 1.819e+04 5.450e-09
 99.33234     39.0 1.919e+04 7.571e-09
 99.34222     38.4 1.955e+04 9.488e-09
 99.35131     37.7 2.013e+04 1.211e-08
 99.35625     36.8 1.960e+04 1.107e-08
 99.36199     36.6 1.971e+04 1.216e-08
 99.37188     35.2 2.055e+04 1.387e-08
 99.38176     34.5 2.076e+04 1.428e-08
 99.39164     32.3 2.155e+04 1.479e-08
 99.40153     30.4 2.212e+04 1.539e-08
 99.41141     27.1 2.333e+04 1.764e-08
 99.41766     20.9 2.692e+04 2.519e-08
 99.42260     23.5 2.502e+04 1.583e-08
 99.43118     14.5 3.078e+04 3.000e-08
 99.44106      4.6 2.876e+04 1.195e-07
 99.45095     -1.6 2.359e+04 4.547e-07
 99.46083     -6.2 2.135e+04 1.020e-06
 99.47072     -9.4 2.109e+04 9.612e-07
 99.47907     -9.8 2.136e+04 5.949e-07
 99.48402     -9.6 2.154e+04 6.221e-07
 99.49049    -10.3 2.250e+04 3.045e-07
 99.50037    -10.9 2.334e+04 1.240e-07
 99.51025    -12.1 2.442e+04 4.344e-08
 99.52014    -14.5 2.438e+04 1.633e-08
 99.53002    -17.5 2.272e+04 6.688e-09
 99.53991    -19.8 1.975e+04 3.632e-09
 99.54543    -20.5 1.725e+04 2.053e-09
 99.55037    -17.9 1.925e+04 4.280e-09
 99.55967    -18.6 1.773e+04 3.192e-09
 99.56956    -16.9 1.664e+04 2.814e-09
 99.57944    -16.9 1.665e+04 2.775e-09
 99.59432    -15.5 1.676e+04 2.735e-09
 99.61414    -15.2 1.570e+04 2.183e-09
 99.63390    -15.4 1.473e+04 1.987e-09
 99.65367    -15.3 1.473e+04 2.111e-09
 99.66835    -15.2 1.555e+04 2.580e-09
 99.67823    -13.3 1.538e+04 2.682e-09
 99.68822    -13.2 1.568e+04 2.945e-09
 99.69805    -13.2 1.567e+04 2.952e-09
 99.70794    -13.8 1.642e+04 3.428e-09
 99.71782    -15.3 1.799e+04 3.860e-09
 99.72771    -20.2 2.332e+04 5.831e-09
 99.73271    -25.1 2.613e+04 1.100e-08
 99.73467    -20.5 2.266e+04 6.926e-09
 99.73955    -19.1 2.294e+04 5.892e-09
 99.74747    -23.6 2.482e+04 1.055e-08
 99.75736    -27.0 2.381e+04 1.946e-08
 99.76724    -29.2 2.288e+04 3.477e-08
 99.77713    -31.0 2.232e+04 5.785e-08
 99.78701    -31.6 2.212e+04 9.586e-08
 99.79602    -31.5 2.253e+04 1.353e-07
 99.80096    -31.4 2.236e+04 1.290e-07
 99.80678    -31.1 2.292e+04 1.423e-07
 99.81666    -31.2 2.446e+04 9.602e-08
 99.82655    -32.0 2.440e+04 6.260e-08
 99.83643    -33.6 2.378e+04 3.799e-08
 99.84632    -34.9 2.241e+04 2.386e-08
 99.85620    -36.9 1.998e+04 1.452e-08
 99.87107    -36.4 1.946e+04 1.145e-08
 99.89089    -36.0 1.735e+04 5.723e-09
 99.91066    -36.0 1.576e+04 3.084e-09
 99.92388    -36.2 1.407e+04 1.754e-09
 99.93376    -35.8 1.387e+04 1.506e-09
 99.95020    -36.0 1.229e+04 9.879e-10
 99.96996    -35.4 1.144e+04 7.469e-10
 99.98973    -34.4 1.110e+04 6.153e-10
100.00950    -33.1 1.096e+04 5.356e-10
