# Columns:
#   distance along LOS (in CHIMPs)
#   peculiar velocity  (in km/s)
#   temperature (K)
#   HI number density
# pos=(130.616,163.656,237.07), angles=(1.66673,0.200895)
  0.01094    -92.0 1.023e+04 3.397e-10
  0.04191    -90.1 1.005e+04 2.609e-10
  0.06816    -88.2 9.967e+03 2.100e-10
  0.08818    -89.1 1.019e+04 1.967e-10
  0.10862    -87.2 1.012e+04 1.818e-10
  0.12864    -88.2 1.034e+04 2.384e-10
  0.16206    -86.2 1.023e+04 2.370e-10
  0.20210    -84.3 1.009e+04 2.136e-10
  0.24215    -82.3 1.001e+04 1.844e-10
  0.26661    -80.5 1.000e+04 1.657e-10
  0.28663    -80.8 9.910e+03 1.599e-10
  0.32225    -79.2 9.960e+03 1.552e-10
  0.36230    -77.7 1.012e+04 1.591e-10
  0.40235    -76.3 1.028e+04 1.885e-10
  0.44239    -74.7 1.041e+04 2.369e-10
  0.46506    -73.0 1.053e+04 2.938e-10
  0.48508    -73.1 1.028e+04 2.622e-10
  0.51276    -71.2 1.038e+04 3.004e-10
  0.53278    -72.3 1.044e+04 2.943e-10
  0.56254    -71.8 1.078e+04 3.225e-10
  0.60259    -74.3 1.253e+04 4.710e-10
  0.63253    -77.9 1.423e+04 1.225e-09
  0.65245    -79.4 1.482e+04 2.535e-09
  0.66332    -80.1 1.519e+04 5.051e-09
  0.67333    -80.4 1.530e+04 5.867e-09
  0.69250    -79.6 1.552e+04 7.260e-09
  0.71253    -79.0 1.545e+04 7.324e-09
  0.72464    -77.8 1.477e+04 5.160e-09
  0.73465    -77.5 1.445e+04 3.599e-09
  0.75253    -77.3 1.348e+04 1.606e-09
  0.77255    -82.6 1.124e+04 3.639e-10
  0.79262    -83.9 1.034e+04 2.243e-10
  0.81265    -84.0 1.016e+04 1.982e-10
  0.84184    -83.1 1.019e+04 1.919e-10
  0.86196    -84.4 9.812e+03 1.679e-10
  0.88293    -82.6 9.463e+03 1.327e-10
  0.91689    -80.7 9.318e+03 1.163e-10
  0.93692    -80.4 9.175e+03 9.345e-11
  0.96302    -78.6 9.160e+03 9.215e-11
  1.00307    -76.8 9.133e+03 9.360e-11
  1.04039    -75.0 9.105e+03 9.485e-11
  1.06041    -75.1 9.102e+03 1.061e-10
  1.08317    -73.2 9.067e+03 1.038e-10
  1.12322    -71.5 9.079e+03 1.006e-10
  1.16327    -69.9 9.109e+03 9.974e-11
  1.20331    -68.7 9.241e+03 1.145e-10
  1.23884    -67.5 9.363e+03 1.564e-10
  1.25887    -67.2 9.380e+03 1.855e-10
  1.28341    -65.7 9.550e+03 2.646e-10
  1.32103    -64.0 9.712e+03 3.312e-10
  1.34105    -63.6 9.562e+03 2.697e-10
  1.36351    -61.9 9.715e+03 3.215e-10
  1.40356    -60.4 9.755e+03 3.323e-10
  1.43729    -59.1 9.694e+03 3.079e-10
  1.45732    -58.6 9.838e+03 3.628e-10
  1.48365    -57.5 9.758e+03 3.385e-10
  1.52370    -56.3 9.766e+03 3.404e-10
  1.56375    -55.2 9.931e+03 4.128e-10
  1.60380    -53.7 1.013e+04 5.131e-10
  1.63574    -52.0 1.024e+04 5.602e-10
  1.65577    -51.3 1.019e+04 5.678e-10
  1.68389    -49.5 1.020e+04 5.700e-10
  1.72394    -47.7 1.001e+04 4.689e-10
  1.74519    -46.1 9.802e+03 3.293e-10
  1.76521    -46.1 9.672e+03 2.942e-10
  1.80404    -45.0 9.602e+03 2.327e-10
  1.83420    -44.0 9.536e+03 2.043e-10
  1.85422    -43.3 9.581e+03 2.306e-10
  1.88414    -42.2 9.637e+03 2.287e-10
  1.92419    -41.8 9.789e+03 2.351e-10
  1.96423    -42.1 1.018e+04 3.327e-10
  2.00428    -42.4 1.083e+04 6.175e-10
  2.03265    -42.1 1.170e+04 1.117e-09
  2.05267    -41.5 1.168e+04 1.158e-09
  2.08438    -40.7 1.220e+04 1.378e-09
  2.12443    -40.4 1.236e+04 1.338e-09
  2.14933    -40.7 1.202e+04 9.502e-10
  2.15924    -40.9 1.116e+04 4.974e-10
  2.17429    -41.1 1.100e+04 4.377e-10
  2.19432    -41.7 1.066e+04 3.625e-10
  2.21434    -41.8 1.041e+04 3.359e-10
  2.23090    -41.8 1.022e+04 3.082e-10
  2.25102    -41.9 9.982e+03 2.459e-10
  2.28462    -41.3 9.807e+03 2.376e-10
  2.32467    -40.3 9.606e+03 2.067e-10
  2.36472    -39.4 9.461e+03 1.656e-10
  2.40477    -38.6 9.324e+03 1.407e-10
  2.42955    -37.9 9.278e+03 1.357e-10
  2.44957    -38.6 9.227e+03 9.491e-11
  2.48486    -41.1 9.922e+03 1.335e-10
  2.52491    -45.1 1.163e+04 6.083e-10
  2.55337    -46.8 1.280e+04 1.945e-09
  2.56328    -47.0 1.304e+04 2.241e-09
  2.57478    -46.9 1.368e+04 3.160e-09
  2.59480    -47.9 1.506e+04 3.961e-09
  2.61482    -55.4 1.988e+04 5.564e-09
  2.62781    -67.9 2.385e+04 9.633e-09
  2.63782    -72.8 2.366e+04 1.438e-08
  2.65487    -82.0 2.200e+04 1.919e-08
  2.67490    -88.8 2.071e+04 2.037e-08
  2.69492    -94.2 1.952e+04 1.703e-08
  2.71495    -99.9 1.815e+04 1.010e-08
  2.72703   -105.5 1.599e+04 6.003e-09
  2.73704   -105.8 1.445e+04 2.645e-09
  2.75499   -109.0 1.352e+04 2.269e-09
  2.76535   -110.1 1.336e+04 2.234e-09
  2.77536   -110.1 1.315e+04 2.241e-09
  2.79504   -110.9 1.304e+04 2.358e-09
  2.81507   -111.4 1.299e+04 2.440e-09
  2.82626   -111.7 1.275e+04 2.454e-09
  2.83627   -111.4 1.205e+04 1.510e-09
  2.85512   -111.5 1.201e+04 1.615e-09
  2.87514   -111.5 1.195e+04 1.660e-09
  2.89516   -111.3 1.162e+04 1.645e-09
  2.91519   -111.0 1.143e+04 1.464e-09
  2.92548   -110.6 1.109e+04 1.245e-09
  2.93549   -110.3 1.108e+04 1.225e-09
  2.95524   -109.8 1.086e+04 1.086e-09
  2.96742   -109.2 1.065e+04 9.655e-10
  2.97743   -109.4 1.042e+04 8.102e-10
  2.99528   -108.9 1.028e+04 7.189e-10
  3.01470   -108.5 1.011e+04 6.258e-10
  3.02471   -108.2 1.023e+04 6.886e-10
  3.03533   -107.7 1.014e+04 6.401e-10
  3.05536   -107.2 1.013e+04 6.106e-10
  3.07538   -107.3 1.032e+04 6.124e-10
  3.09541   -108.3 1.133e+04 7.040e-10
  3.11392   -110.5 1.281e+04 1.051e-09
  3.12393   -112.8 1.399e+04 2.387e-09
  3.13545   -113.5 1.502e+04 4.275e-09
  3.15548   -113.4 1.592e+04 7.146e-09
  3.16949   -112.8 1.653e+04 1.004e-08
  3.17950   -112.6 1.588e+04 7.768e-09
  3.19553   -111.9 1.606e+04 8.305e-09
  3.21315   -111.3 1.601e+04 8.156e-09
  3.22316   -111.2 1.590e+04 7.836e-09
  3.23557   -110.4 1.533e+04 5.353e-09
  3.25560   -110.3 1.452e+04 3.150e-09
  3.27562   -111.7 1.346e+04 1.798e-09
  3.29565   -113.8 1.226e+04 1.127e-09
  3.31237   -115.4 1.140e+04 8.544e-10
  3.32239   -116.7 1.080e+04 6.192e-10
  3.33570   -116.9 1.075e+04 6.074e-10
  3.35572   -117.0 1.080e+04 6.168e-10
  3.37155   -117.2 1.091e+04 6.370e-10
  3.38157   -117.7 1.101e+04 6.926e-10
  3.39577   -117.9 1.112e+04 7.298e-10
  3.41160   -118.3 1.117e+04 7.483e-10
  3.42161   -118.9 1.114e+04 7.357e-10
  3.43582   -119.1 1.116e+04 7.415e-10
  3.45584   -119.2 1.115e+04 7.381e-10
  3.47587   -119.2 1.111e+04 7.041e-10
  3.49589   -119.0 1.103e+04 6.466e-10
  3.51082   -118.7 1.092e+04 5.842e-10
  3.52084   -118.7 1.090e+04 5.891e-10
  3.53594   -118.4 1.077e+04 5.192e-10
  3.55596   -118.0 1.065e+04 4.752e-10
  3.57362   -117.6 1.060e+04 4.593e-10
  3.58363   -117.8 1.058e+04 4.463e-10
  3.59601   -117.5 1.058e+04 4.441e-10
  3.61005   -117.2 1.064e+04 4.578e-10
  3.62006   -117.0 1.041e+04 4.061e-10
  3.63606   -116.8 1.058e+04 4.602e-10
  3.65608   -116.6 1.080e+04 5.655e-10
  3.67611   -116.2 1.105e+04 6.995e-10
  3.69613   -115.8 1.131e+04 8.314e-10
  3.70928   -115.4 1.154e+04 9.404e-10
  3.71929   -115.3 1.132e+04 8.633e-10
  3.73618   -115.0 1.146e+04 9.455e-10
  3.75620   -114.8 1.149e+04 9.669e-10
  3.77569   -114.4 1.143e+04 9.552e-10
  3.78570   -114.5 1.131e+04 8.898e-10
  3.79625   -113.9 1.104e+04 7.902e-10
  3.80850   -113.1 1.078e+04 6.578e-10
  3.81851   -113.1 1.075e+04 6.945e-10
  3.83630   -112.3 1.053e+04 5.636e-10
  3.85633   -111.5 1.034e+04 4.527e-10
  3.88646   -111.1 1.020e+04 3.724e-10
  3.92661   -110.3 9.995e+03 2.872e-10
  3.96665   -109.2 9.854e+03 2.282e-10
  3.99714   -108.1 9.856e+03 2.155e-10
  4.01716   -108.2 9.811e+03 2.215e-10
  4.04675   -107.5 9.874e+03 2.160e-10
  4.08680   -107.2 1.017e+04 2.727e-10
  4.12685   -106.9 1.064e+04 4.336e-10
  4.16690   -106.3 1.110e+04 7.061e-10
  4.19003   -105.7 1.146e+04 9.484e-10
  4.19870   -106.1 1.141e+04 9.175e-10
  4.21561   -105.9 1.144e+04 9.080e-10
  4.24699   -105.4 1.161e+04 9.950e-10
  4.28704   -105.2 1.164e+04 9.828e-10
  4.32709   -105.1 1.141e+04 7.807e-10
  4.36714   -105.2 1.126e+04 6.219e-10
  4.39404   -105.0 1.124e+04 5.865e-10
  4.41406   -104.7 1.180e+04 9.673e-10
  4.44723   -104.4 1.208e+04 1.024e-09
  4.48728   -104.1 1.236e+04 1.158e-09
  4.52733   -103.8 1.249e+04 1.252e-09
  4.56738   -103.1 1.249e+04 1.261e-09
  4.59249   -102.1 1.233e+04 1.150e-09
  4.59916   -101.8 1.231e+04 1.204e-09
  4.61410   -101.5 1.201e+04 9.897e-10
  4.64748    -99.9 1.181e+04 8.557e-10
  4.68752    -98.2 1.167e+04 7.580e-10
  4.72757    -96.6 1.171e+04 7.063e-10
  4.76762    -95.3 1.185e+04 6.548e-10
  4.79094    -94.8 1.212e+04 6.386e-10
  4.79944    -95.3 1.262e+04 1.039e-09
  4.80606    -95.2 1.263e+04 1.073e-09
  4.81749    -95.2 1.303e+04 1.386e-09
  4.83751    -95.3 1.320e+04 1.607e-09
  4.85754    -95.4 1.350e+04 1.955e-09
  4.87756    -95.4 1.374e+04 2.263e-09
  4.88997    -95.5 1.383e+04 2.397e-09
  4.89998    -95.5 1.478e+04 4.012e-09
  4.91761    -95.5 1.470e+04 3.877e-09
  4.93763    -95.4 1.436e+04 3.110e-09
  4.95766    -95.5 1.396e+04 2.293e-09
  4.97768    -96.0 1.350e+04 1.669e-09
  4.98930    -96.6 1.295e+04 1.215e-09
  4.99931    -97.3 1.334e+04 1.436e-09
  5.00812    -97.9 1.297e+04 1.178e-09
  5.01814    -97.1 1.306e+04 1.245e-09
  5.03775    -97.3 1.280e+04 1.050e-09
  5.05778    -97.4 1.265e+04 9.259e-10
  5.08791    -97.7 1.254e+04 8.225e-10
  5.12806    -97.6 1.245e+04 7.553e-10
  5.16782    -98.6 1.301e+04 8.067e-10
  5.18785    -98.6 1.243e+04 7.113e-10
  5.19804   -100.3 1.310e+04 9.332e-10
  5.21019   -101.1 1.341e+04 1.159e-09
  5.22021   -100.9 1.349e+04 1.118e-09
  5.23799   -102.1 1.402e+04 1.593e-09
  5.25802   -103.2 1.433e+04 2.439e-09
  5.27686   -103.7 1.440e+04 3.227e-09
  5.28688   -103.0 1.417e+04 2.479e-09
  5.29807   -103.6 1.429e+04 3.116e-09
  5.31809   -104.0 1.431e+04 3.318e-09
  5.33812   -104.6 1.416e+04 3.259e-09
  5.35814   -105.6 1.381e+04 2.557e-09
  5.37609   -106.9 1.331e+04 1.758e-09
  5.38610   -106.5 1.365e+04 2.483e-09
  5.39819   -107.9 1.308e+04 1.713e-09
  5.41226   -109.3 1.245e+04 1.178e-09
  5.42227   -109.2 1.255e+04 1.170e-09
  5.43824   -110.5 1.188e+04 8.115e-10
  5.45826   -111.4 1.142e+04 6.307e-10
  5.47531   -111.9 1.116e+04 5.487e-10
  5.48533   -112.4 1.132e+04 5.791e-10
  5.49831   -112.9 1.115e+04 5.301e-10
  5.51833   -113.2 1.107e+04 5.139e-10
  5.53836   -113.3 1.105e+04 5.068e-10
  5.55838   -113.3 1.104e+04 4.863e-10
  5.57454   -113.1 1.099e+04 4.491e-10
  5.58455   -113.6 1.090e+04 3.993e-10
  5.60854   -113.4 1.080e+04 3.183e-10
  5.64869   -113.0 1.070e+04 2.706e-10
  5.68873   -112.2 1.042e+04 2.126e-10
  5.72878   -111.0 1.008e+04 1.670e-10
  5.76318   -109.5 9.803e+03 1.377e-10
  5.78320   -110.1 9.739e+03 1.258e-10
  5.80658   -108.3 9.657e+03 1.177e-10
  5.82661   -107.0 9.580e+03 1.035e-10
  5.84893   -105.0 9.564e+03 1.007e-10
  5.88898   -103.0 9.574e+03 1.006e-10
  5.92902   -101.1 9.702e+03 1.052e-10
  5.96163    -99.4 9.831e+03 1.374e-10
  5.98165    -99.9 1.034e+04 2.388e-10
  6.00912    -98.0 1.056e+04 3.431e-10
  6.04917    -96.0 1.084e+04 4.913e-10
  6.08922    -94.0 1.118e+04 6.721e-10
  6.12927    -92.2 1.155e+04 8.672e-10
  6.16008    -90.6 1.194e+04 1.031e-09
  6.18010    -92.1 1.278e+04 1.628e-09
  6.19925    -90.5 1.306e+04 2.172e-09
  6.21918    -89.6 1.326e+04 2.474e-09
  6.23055    -88.7 1.337e+04 2.640e-09
  6.24056    -88.5 1.373e+04 3.159e-09
  6.25911    -87.6 1.375e+04 3.206e-09
  6.26912    -88.1 1.404e+04 3.559e-09
  6.27925    -86.9 1.388e+04 3.446e-09
  6.29928    -85.6 1.350e+04 2.928e-09
  6.31930    -84.4 1.304e+04 2.285e-09
  6.33933    -83.5 1.254e+04 1.721e-09
  6.35843    -82.6 1.202e+04 1.279e-09
  6.36844    -82.9 1.224e+04 1.400e-09
  6.37937    -82.2 1.190e+04 1.147e-09
  6.40951    -81.3 1.161e+04 9.347e-10
  6.44965    -78.5 1.105e+04 6.804e-10
  6.48970    -75.5 1.044e+04 4.911e-10
  6.52975    -72.5 1.010e+04 3.787e-10
  6.55698    -69.5 9.843e+03 3.104e-10
  6.57701    -70.3 9.996e+03 3.210e-10
  6.60985    -67.3 9.778e+03 2.676e-10
  6.63488    -64.2 9.606e+03 2.392e-10
  6.65490    -64.3 9.339e+03 1.828e-10
  6.68994    -61.2 9.168e+03 1.596e-10
  6.72999    -58.2 9.156e+03 1.497e-10
  6.75543    -55.7 9.319e+03 1.491e-10
  6.77546    -59.4 1.162e+04 3.387e-10
  6.81009    -57.9 1.250e+04 5.526e-10
  6.85014    -56.3 1.321e+04 1.049e-09
  6.88008    -55.3 1.415e+04 2.254e-09
  6.90000    -54.4 1.433e+04 2.789e-09
  6.92003    -53.4 1.446e+04 3.477e-09
  6.94005    -52.4 1.442e+04 3.561e-09
  6.95369    -51.2 1.430e+04 3.452e-09
  6.96370    -52.0 1.440e+04 3.378e-09
  6.98010    -51.1 1.391e+04 2.495e-09
  7.00012    -50.7 1.319e+04 1.608e-09
  7.02015    -50.8 1.228e+04 9.522e-10
  7.03882    -51.6 1.121e+04 5.536e-10
  7.04883    -48.6 1.261e+04 9.673e-10
  7.05291    -49.7 1.121e+04 5.176e-10
  7.06293    -54.1 9.580e+03 2.470e-10
  7.08022    -56.3 9.589e+03 2.317e-10
  7.10025    -60.8 1.046e+04 3.103e-10
  7.12027    -65.9 1.161e+04 6.140e-10
  7.14029    -69.4 1.260e+04 1.308e-09
  7.15214    -72.1 1.349e+04 2.148e-09
  7.16215    -75.9 1.350e+04 2.242e-09
  7.18034    -79.3 1.361e+04 2.323e-09
  7.20037    -83.6 1.305e+04 1.792e-09
  7.22039    -88.3 1.192e+04 1.208e-09
  7.24041    -92.2 1.100e+04 8.746e-10
  7.25090    -94.9 1.046e+04 7.231e-10
  7.25184    -95.1 1.014e+04 6.681e-10
  7.26138    -96.5 9.851e+03 5.512e-10
  7.28046    -97.8 9.797e+03 5.440e-10
  7.30049    -99.1 9.793e+03 5.570e-10
  7.32051   -100.2 9.840e+03 5.795e-10
  7.34054   -101.3 9.965e+03 6.111e-10
  7.36056   -102.8 1.019e+04 6.557e-10
  7.38058   -104.0 1.050e+04 7.064e-10
  7.40061   -105.2 1.076e+04 7.399e-10
  7.42063   -106.2 1.081e+04 7.559e-10
  7.43980   -107.1 1.080e+04 7.607e-10
  7.44982   -106.6 1.068e+04 7.127e-10
  7.45297   -108.8 1.083e+04 7.346e-10
  7.46298   -106.5 1.058e+04 6.760e-10
  7.48071   -111.0 1.174e+04 8.194e-10
  7.50073   -117.8 1.481e+04 1.900e-09
  7.52075   -123.1 1.706e+04 4.787e-09
  7.53903   -127.4 1.849e+04 8.718e-09
  7.54904   -126.4 1.816e+04 8.951e-09
  7.56080   -131.0 1.869e+04 1.014e-08
  7.58083   -136.9 1.856e+04 9.493e-09
  7.60085   -143.3 1.686e+04 6.425e-09
  7.62087   -148.4 1.488e+04 4.464e-09
  7.63826   -150.9 1.401e+04 3.659e-09
  7.64827   -150.2 1.342e+04 2.900e-09
  7.65504   -151.0 1.320e+04 2.683e-09
  7.66505   -151.3 1.301e+04 2.212e-09
  7.68095   -151.7 1.283e+04 2.007e-09
  7.70097   -151.9 1.253e+04 1.698e-09
  7.72100   -152.0 1.210e+04 1.339e-09
  7.73748   -151.9 1.163e+04 1.004e-09
  7.74749   -151.0 1.170e+04 9.760e-10
  7.76104   -150.9 1.130e+04 7.336e-10
  7.78107   -150.9 1.091e+04 5.430e-10
  7.80109   -150.8 1.055e+04 4.097e-10
  7.82112   -150.7 1.028e+04 3.398e-10
  7.84719   -150.1 1.012e+04 3.091e-10
  7.86731   -150.1 1.015e+04 2.900e-10
  7.89140   -149.1 9.875e+03 2.560e-10
  7.92612   -148.1 9.754e+03 2.427e-10
  7.94614   -147.0 1.006e+04 3.048e-10
  7.97149   -146.3 1.006e+04 3.097e-10
  8.01154   -145.7 1.011e+04 3.377e-10
  8.05159   -145.1 1.013e+04 3.719e-10
  8.09164   -144.3 1.012e+04 3.908e-10
  8.12457   -143.2 1.009e+04 3.916e-10
  8.14459   -142.7 1.022e+04 4.219e-10
  8.17174   -141.5 1.005e+04 3.737e-10
  8.21178   -140.2 9.870e+03 3.166e-10
  8.25143   -138.8 9.671e+03 2.609e-10
  8.27145   -138.3 9.826e+03 2.914e-10
  8.29188   -136.8 9.655e+03 2.512e-10
  8.32302   -135.2 9.555e+03 2.265e-10
  8.34304   -134.4 9.568e+03 2.299e-10
  8.37198   -132.8 9.545e+03 2.197e-10
  8.41203   -131.1 9.545e+03 2.170e-10
  8.45207   -129.6 9.571e+03 2.186e-10
  8.49212   -128.1 9.631e+03 2.294e-10
  8.52147   -126.7 9.739e+03 2.527e-10
  8.54150   -126.1 9.866e+03 2.458e-10
  8.57222   -124.8 1.012e+04 3.126e-10
  8.61227   -123.6 1.042e+04 4.064e-10
  8.65232   -122.6 1.070e+04 4.855e-10
  8.67559   -121.8 1.080e+04 5.087e-10
  8.69561   -120.7 1.079e+04 5.235e-10
  8.71992   -119.8 1.079e+04 5.174e-10
  8.73995   -119.6 1.099e+04 5.871e-10
  8.77246   -118.5 1.083e+04 5.261e-10
  8.81251   -117.2 1.062e+04 4.366e-10
  8.85256   -115.9 1.046e+04 3.617e-10
  8.89261   -114.7 1.024e+04 3.020e-10
  8.91837   -113.2 9.938e+03 2.489e-10
  8.93840   -113.2 9.982e+03 2.602e-10
  8.97270   -111.6 9.722e+03 2.158e-10
  9.01275   -109.9 9.606e+03 1.939e-10
  9.05280   -108.4 9.601e+03 1.899e-10
  9.07972   -107.3 9.738e+03 2.063e-10
  9.09975   -106.7 9.738e+03 2.269e-10
  9.11683   -105.7 9.816e+03 2.482e-10
  9.13685   -106.3 1.002e+04 3.158e-10
  9.17295   -105.5 1.020e+04 3.811e-10
  9.21299   -104.8 1.041e+04 4.694e-10
  9.25304   -104.3 1.055e+04 5.612e-10
  9.29309   -104.0 1.062e+04 6.287e-10
  9.31528   -103.7 1.059e+04 6.624e-10
  9.33530   -104.0 1.035e+04 5.724e-10
  9.37319   -103.4 1.016e+04 5.389e-10
  9.41324   -102.8 9.969e+03 5.027e-10
  9.45328   -102.2 9.763e+03 4.486e-10
  9.48386   -101.6 9.539e+03 3.819e-10
  9.50388   -100.8 9.645e+03 4.125e-10
  9.51373   -100.3 9.471e+03 3.646e-10
  9.53375   -100.1 9.487e+03 3.677e-10
  9.57343    -99.6 9.456e+03 3.570e-10
  9.61348    -99.3 9.508e+03 3.663e-10
  9.65353    -99.1 9.638e+03 4.109e-10
  9.69216    -98.8 9.755e+03 4.549e-10
  9.71218    -98.8 9.857e+03 4.835e-10
  9.73362    -98.8 9.847e+03 4.873e-10
  9.77367    -98.5 9.636e+03 4.405e-10
  9.81372    -97.8 9.276e+03 3.457e-10
  9.85377    -97.1 8.916e+03 2.593e-10
  9.88800    -96.3 8.689e+03 2.090e-10
  9.90481    -94.8 8.747e+03 2.197e-10
  9.91063    -94.6 8.507e+03 1.802e-10
  9.93386    -93.7 8.353e+03 1.537e-10
  9.97391    -92.8 8.287e+03 1.421e-10
 10.01396    -92.0 8.264e+03 1.381e-10
 10.05401    -91.5 8.335e+03 1.416e-10
 10.08906    -91.3 8.494e+03 1.558e-10
 10.10908    -90.8 8.034e+03 1.028e-10
 10.13411    -91.2 8.754e+03 1.423e-10
 10.16405    -93.0 1.001e+04 2.022e-10
 10.18397   -104.8 1.602e+04 5.275e-10
 10.19810   -113.5 1.851e+04 3.841e-09
 10.20811   -111.8 1.803e+04 3.389e-09
 10.22402   -117.0 2.032e+04 1.282e-08
 10.23899   -120.9 2.204e+04 2.665e-08
 10.24762   -124.1 2.363e+04 3.594e-08
 10.25262   -123.6 2.409e+04 4.382e-08
 10.25896   -127.6 2.506e+04 4.992e-08
 10.26898   -132.4 2.535e+04 4.870e-08
 10.27899   -137.5 2.543e+04 3.056e-08
 10.28900   -143.6 2.319e+04 1.393e-08
 10.29723   -150.2 1.893e+04 6.397e-09
 10.30223   -149.7 1.934e+04 7.256e-09
 10.30686   -154.7 1.561e+04 3.963e-09
 10.31186   -157.0 1.471e+04 3.557e-09
 10.32409   -158.8 1.366e+04 2.668e-09
 10.34417   -159.6 1.314e+04 2.109e-09
 10.36419   -161.0 1.207e+04 1.420e-09
 10.38421   -161.7 1.123e+04 1.047e-09
 10.39655   -161.8 1.092e+04 8.705e-10
 10.40656   -161.6 1.079e+04 7.706e-10
 10.42426   -161.5 1.060e+04 6.473e-10
 10.44429   -161.3 1.042e+04 5.452e-10
 10.46431   -161.3 1.028e+04 4.657e-10
 10.48433   -161.4 1.017e+04 4.099e-10
 10.49578   -161.5 1.012e+04 3.786e-10
 10.50589   -161.5 1.005e+04 3.464e-10
 10.53459   -161.5 1.010e+04 3.513e-10
 10.57464   -161.5 1.017e+04 3.787e-10
 10.61469   -161.5 1.020e+04 4.038e-10
 10.65474   -161.4 1.020e+04 4.088e-10
 10.68441   -161.3 1.007e+04 3.758e-10
 10.70444   -160.3 1.001e+04 3.740e-10
 10.71629   -159.5 9.785e+03 3.113e-10
 10.73632   -159.5 9.558e+03 2.612e-10
 10.77488   -158.3 9.261e+03 1.959e-10
 10.81493   -156.8 9.001e+03 1.443e-10
 10.85498   -155.3 8.839e+03 1.113e-10
 10.88286   -153.7 8.807e+03 9.436e-11
 10.90289   -152.3 8.855e+03 9.656e-11
 10.93507   -150.7 8.839e+03 8.774e-11
 10.97512   -149.3 8.842e+03 8.662e-11
 11.01517   -148.1 8.951e+03 8.870e-11
 11.05522   -147.1 9.213e+03 1.192e-10
 11.08132   -146.0 9.463e+03 1.866e-10
 11.10134   -144.8 9.463e+03 1.689e-10
 11.12043   -143.8 9.694e+03 2.562e-10
 11.14046   -142.8 9.505e+03 2.024e-10
 11.17537   -141.6 9.677e+03 2.718e-10
 11.21541   -140.5 9.780e+03 3.107e-10
 11.25546   -139.3 9.789e+03 3.190e-10
 11.27977   -137.8 9.643e+03 2.956e-10
 11.29979   -137.0 9.837e+03 3.393e-10
 11.33556   -135.3 9.601e+03 2.686e-10
 11.37561   -133.6 9.410e+03 2.043e-10
 11.41566   -132.0 9.327e+03 1.705e-10
 11.45570   -130.5 9.326e+03 1.606e-10
 11.47822   -129.3 9.397e+03 1.612e-10
 11.49824   -129.1 9.620e+03 1.987e-10
 11.52457   -128.1 1.000e+04 2.548e-10
 11.54459   -126.8 9.563e+03 1.944e-10
 11.57585   -125.9 9.934e+03 2.415e-10
 11.61590   -125.0 1.025e+04 3.399e-10
 11.65595   -124.0 1.046e+04 4.357e-10
 11.67667   -123.1 1.057e+04 4.911e-10
 11.69669   -123.0 1.062e+04 4.976e-10
 11.73604   -122.1 1.065e+04 5.120e-10
 11.77609   -121.4 1.070e+04 5.150e-10
 11.81614   -120.8 1.083e+04 5.482e-10
 11.85510   -120.4 1.110e+04 6.294e-10
 11.87512   -120.1 1.107e+04 5.968e-10
 11.89624   -119.9 1.142e+04 7.522e-10
 11.92870   -119.6 1.170e+04 9.035e-10
 11.94873   -119.7 1.206e+04 1.177e-09
 11.97633   -119.6 1.210e+04 1.195e-09
 12.01638   -118.8 1.195e+04 1.026e-09
 12.05355   -117.7 1.171e+04 8.120e-10
 12.07357   -117.3 1.179e+04 8.260e-10
 12.09648   -116.1 1.171e+04 7.088e-10
 12.13653   -114.7 1.176e+04 6.764e-10
 12.17657   -113.2 1.179e+04 6.765e-10
 12.21662   -112.0 1.202e+04 7.198e-10
 12.25200   -110.9 1.227e+04 8.478e-10
 12.27202   -111.3 1.216e+04 7.850e-10
 12.29672   -110.4 1.227e+04 8.297e-10
 12.33284   -109.8 1.230e+04 8.328e-10
 12.35287   -110.6 1.187e+04 6.146e-10
 12.37682   -110.2 1.189e+04 6.460e-10
 12.41687   -109.8 1.188e+04 6.681e-10
 12.45045   -109.4 1.186e+04 6.777e-10
 12.47048   -109.9 1.149e+04 5.607e-10
 12.49696   -109.3 1.147e+04 5.301e-10
 12.53701   -108.7 1.143e+04 4.880e-10
 12.57706   -108.0 1.139e+04 4.468e-10
 12.61711   -107.1 1.134e+04 4.111e-10
 12.64890   -106.0 1.134e+04 3.852e-10
 12.66893   -106.0 1.124e+04 3.183e-10
 12.69720   -104.8 1.127e+04 2.992e-10
 12.73698   -103.5 1.126e+04 2.886e-10
 12.75700   -103.5 1.125e+04 2.849e-10
 12.77730   -102.1 1.121e+04 2.936e-10
 12.81735   -100.6 1.118e+04 2.919e-10
 12.84735    -99.1 1.114e+04 2.818e-10
 12.86738    -98.8 1.112e+04 2.639e-10
 12.89745    -97.2 1.114e+04 2.793e-10
 12.93749    -95.5 1.123e+04 3.054e-10
 12.97754    -93.6 1.134e+04 3.371e-10
 13.01759    -91.8 1.142e+04 3.508e-10
 13.04581    -90.1 1.149e+04 3.474e-10
 13.06583    -89.3 1.166e+04 4.297e-10
 13.09769    -87.5 1.181e+04 4.672e-10
 13.13774    -85.9 1.185e+04 5.116e-10
 13.16114    -84.6 1.206e+04 6.457e-10
 13.17105    -84.4 1.214e+04 6.630e-10
 13.18760    -84.1 1.213e+04 6.533e-10
 13.20763    -83.6 1.219e+04 7.265e-10
 13.22765    -83.6 1.233e+04 9.013e-10
 13.24406    -83.7 1.262e+04 1.158e-09
 13.25407    -82.7 1.285e+04 1.152e-09
 13.26770    -82.9 1.307e+04 1.504e-09
 13.28772    -83.3 1.345e+04 1.991e-09
 13.30775    -83.6 1.396e+04 2.566e-09
 13.32777    -83.9 1.438e+04 3.135e-09
 13.34329    -84.2 1.458e+04 3.431e-09
 13.35330    -84.6 1.579e+04 4.771e-09
 13.36301    -84.7 1.579e+04 5.165e-09
 13.37302    -85.4 1.608e+04 6.975e-09
 13.38784    -85.1 1.554e+04 6.271e-09
 13.40787    -84.8 1.496e+04 4.931e-09
 13.42789    -84.6 1.427e+04 3.671e-09
 13.44251    -84.3 1.361e+04 2.674e-09
 13.45252    -84.0 1.426e+04 3.896e-09
 13.46794    -83.8 1.352e+04 2.731e-09
 13.48796    -83.5 1.287e+04 1.974e-09
 13.50799    -82.9 1.239e+04 1.558e-09
 13.53812    -82.2 1.205e+04 1.318e-09
 13.56528    -80.2 1.145e+04 1.013e-09
 13.58530    -80.6 1.115e+04 8.658e-10
 13.61832    -78.0 1.075e+04 6.782e-10
 13.64116    -75.5 1.046e+04 5.432e-10
 13.66118    -75.5 1.033e+04 4.309e-10
 13.69841    -73.0 1.019e+04 3.708e-10
 13.73846    -70.5 1.014e+04 3.466e-10
 13.77851    -68.1 1.014e+04 3.425e-10
 13.81856    -65.9 1.023e+04 3.768e-10
 13.83961    -63.8 1.044e+04 4.798e-10
 13.85964    -63.9 1.040e+04 4.083e-10
 13.89866    -61.8 1.062e+04 5.451e-10
 13.93870    -59.7 1.085e+04 7.038e-10
 13.96941    -57.9 1.101e+04 8.268e-10
 13.98944    -58.2 1.048e+04 3.997e-10
 14.01804    -56.6 1.057e+04 4.887e-10
 14.03806    -56.6 1.049e+04 4.223e-10
 14.05885    -55.2 1.060e+04 5.161e-10
 14.09890    -54.0 1.071e+04 6.168e-10
 14.13895    -52.8 1.082e+04 7.104e-10
 14.17899    -51.6 1.086e+04 7.429e-10
 14.21649    -50.3 1.066e+04 7.171e-10
 14.23651    -50.1 1.063e+04 6.769e-10
 14.25909    -48.2 1.021e+04 4.979e-10
 14.29914    -46.3 9.751e+03 3.139e-10
 14.33919    -44.4 9.429e+03 1.838e-10
 14.37355    -42.8 9.205e+03 1.167e-10
 14.39357    -42.7 9.125e+03 1.067e-10
 14.41494    -41.0 8.967e+03 8.853e-11
 14.43497    -40.4 9.103e+03 1.049e-10
 14.45933    -38.5 9.005e+03 9.746e-11
 14.49938    -36.4 8.966e+03 9.686e-11
 14.53943    -34.2 8.944e+03 1.044e-10
 14.57948    -31.8 8.921e+03 1.098e-10
 14.61339    -29.3 8.898e+03 1.099e-10
 14.63342    -28.8 9.024e+03 1.094e-10
 14.65958    -26.6 9.084e+03 1.112e-10
 14.69962    -25.1 9.470e+03 1.234e-10
 14.73967    -24.9 1.015e+04 1.705e-10
 14.77769    -25.6 1.046e+04 3.619e-10
 14.79771    -25.6 1.032e+04 2.481e-10
 14.81184    -24.7 1.065e+04 6.908e-10
 14.83187    -24.5 1.138e+04 1.044e-09
 14.85982    -22.7 1.192e+04 1.483e-09
 14.89987    -21.9 1.165e+04 1.168e-09
 14.93991    -20.9 1.116e+04 4.548e-10
 14.97996    -21.3 1.035e+04 2.088e-10
 15.01030    -20.6 9.926e+03 1.468e-10
 15.03032    -20.6 1.015e+04 1.940e-10
 15.06006    -19.2 9.952e+03 1.723e-10
 15.10011    -17.4 9.939e+03 1.743e-10
 15.14016    -15.5 9.898e+03 1.969e-10
 15.18020    -13.2 9.806e+03 2.139e-10
 15.20185    -11.0 9.851e+03 2.008e-10
 15.21036    -10.9 1.002e+04 2.422e-10
 15.22877    -10.8 1.010e+04 2.705e-10
 15.26030     -8.9 1.010e+04 2.507e-10
 15.30035     -7.0 1.001e+04 2.276e-10
 15.34040     -4.8 9.839e+03 1.942e-10
 15.38045     -2.5 9.814e+03 1.493e-10
 15.40720     -0.7 9.818e+03 1.199e-10
 15.42722     -0.7 9.936e+03 1.229e-10
 15.46054      1.2 9.839e+03 1.177e-10
 15.50059      3.4 9.801e+03 1.192e-10
 15.54064      5.6 9.803e+03 1.216e-10
 15.58069      7.9 9.806e+03 1.243e-10
 15.60565     10.3 9.822e+03 1.233e-10
 15.61092     10.4 9.999e+03 1.415e-10
 15.62601     10.4 1.002e+04 1.368e-10
 15.66079     12.4 1.009e+04 1.353e-10
 15.70083     14.5 1.015e+04 1.365e-10
 15.74088     16.5 1.018e+04 1.364e-10
 15.78093     18.5 1.027e+04 1.334e-10
 15.80410     20.4 1.034e+04 1.350e-10
 15.82413     19.9 1.074e+04 3.047e-10
 15.86103     21.3 1.113e+04 4.025e-10
 15.90108     22.5 1.158e+04 5.679e-10
 15.94112     23.4 1.199e+04 8.009e-10
 15.98117     24.3 1.248e+04 1.093e-09
 16.00245     23.9 1.294e+04 1.396e-09
 16.01128     23.2 1.369e+04 2.330e-09
 16.01994     22.9 1.368e+04 2.304e-09
 16.03104     23.1 1.382e+04 2.506e-09
 16.05106     23.4 1.387e+04 2.637e-09
 16.07109     23.8 1.390e+04 2.704e-09
 16.09111     24.1 1.393e+04 2.681e-09
 16.10158     24.4 1.393e+04 2.613e-09
 16.11159     24.0 1.411e+04 2.918e-09
 16.14127     24.2 1.386e+04 2.442e-09
 16.18098     24.9 1.344e+04 1.789e-09
 16.20100     24.2 1.332e+04 1.752e-09
 16.21135     25.2 1.299e+04 1.455e-09
 16.22200     26.2 1.278e+04 1.216e-09
 16.23202     26.2 1.255e+04 9.952e-10
 16.26141     27.3 1.239e+04 7.406e-10
 16.30156     28.7 1.220e+04 4.665e-10
 16.34161     30.0 1.207e+04 3.422e-10
 16.37943     31.6 1.191e+04 3.006e-10
 16.39946     31.9 1.175e+04 2.559e-10
 16.41426     33.8 1.172e+04 2.640e-10
 16.43428     33.5 1.152e+04 1.640e-10
 16.46175     35.5 1.155e+04 1.707e-10
 16.50180     37.2 1.162e+04 1.840e-10
 16.54185     38.8 1.167e+04 2.194e-10
 16.57788     40.2 1.172e+04 2.781e-10
 16.59791     41.0 1.176e+04 2.925e-10
 16.62195     42.5 1.180e+04 3.476e-10
 16.66200     44.0 1.184e+04 3.858e-10
 16.70204     45.3 1.183e+04 3.942e-10
 16.74209     46.6 1.183e+04 4.021e-10
 16.77633     47.8 1.188e+04 4.213e-10
 16.79636     48.5 1.178e+04 4.015e-10
 16.81839     49.7 1.180e+04 4.335e-10
 16.83842     49.5 1.185e+04 4.343e-10
 16.86224     50.6 1.184e+04 4.284e-10
 16.90229     51.6 1.183e+04 4.131e-10
 16.94233     52.3 1.189e+04 4.209e-10
 16.97479     52.3 1.207e+04 4.734e-10
 16.99481     53.1 1.199e+04 4.452e-10
 17.02243     53.2 1.218e+04 5.856e-10
 17.06248     53.5 1.241e+04 7.784e-10
 17.10253     53.8 1.260e+04 8.896e-10
 17.14258     54.3 1.261e+04 8.773e-10
 17.17324     55.1 1.252e+04 7.871e-10
 17.19326     55.6 1.254e+04 8.541e-10
 17.22253     56.4 1.245e+04 7.773e-10
 17.26258     56.4 1.217e+04 4.600e-10
 17.30277     57.5 1.217e+04 4.146e-10
 17.34282     58.8 1.224e+04 4.269e-10
 17.37159     59.3 1.223e+04 4.483e-10
 17.39161     59.4 1.231e+04 4.433e-10
 17.41281     59.9 1.231e+04 4.915e-10
 17.43273     60.2 1.252e+04 5.968e-10
 17.44443     60.2 1.278e+04 7.722e-10
 17.45444     60.1 1.268e+04 7.609e-10
 17.47072     60.2 1.290e+04 1.017e-09
 17.48073     59.8 1.274e+04 9.017e-10
 17.49280     60.2 1.292e+04 1.181e-09
 17.51283     60.6 1.306e+04 1.355e-09
 17.53285     60.8 1.307e+04 1.346e-09
 17.55288     61.1 1.297e+04 1.265e-09
 17.56994     61.5 1.274e+04 1.058e-09
 17.57996     61.6 1.258e+04 9.294e-10
 17.59293     62.0 1.235e+04 7.423e-10
 17.61295     62.3 1.212e+04 5.712e-10
 17.63297     62.5 1.198e+04 4.791e-10
 17.64659     63.1 1.173e+04 3.999e-10
 17.66672     62.7 1.171e+04 3.866e-10
 17.70325     64.1 1.118e+04 3.125e-10
 17.74330     65.8 1.076e+04 2.870e-10
 17.76859     67.5 1.079e+04 2.852e-10
 17.78862     69.1 1.034e+04 2.753e-10
 17.82340     70.6 1.045e+04 2.851e-10
 17.86345     71.9 1.098e+04 3.095e-10
 17.90350     72.8 1.144e+04 3.947e-10
 17.94354     73.5 1.204e+04 5.258e-10
 17.96704     74.1 1.238e+04 5.982e-10
 17.98707     76.5 1.257e+04 9.902e-10
 18.02364     76.8 1.272e+04 9.736e-10
 18.05083     76.8 1.264e+04 7.854e-10
 18.07085     75.6 1.257e+04 3.833e-10
 18.10374     74.2 1.264e+04 1.924e-10
 18.14379     72.2 1.189e+04 1.759e-10
 18.16549     71.6 1.159e+04 1.920e-10
 18.18552     71.8 1.167e+04 2.729e-10
 18.22388     71.7 1.143e+04 3.150e-10
 18.26393     72.5 1.139e+04 3.535e-10
 18.30398     73.9 1.143e+04 3.974e-10
 18.34392     75.4 1.144e+04 3.878e-10
 18.38397     76.7 1.137e+04 2.402e-10
 18.42412     78.3 1.132e+04 1.962e-10
 18.45496     79.6 1.123e+04 1.687e-10
 18.47499     78.9 1.118e+04 1.442e-10
 18.50422     80.3 1.109e+04 1.435e-10
 18.54237     81.9 1.104e+04 1.496e-10
 18.56240     81.4 1.107e+04 1.491e-10
 18.58432     82.9 1.101e+04 1.887e-10
 18.62437     84.7 1.102e+04 2.500e-10
 18.66442     86.7 1.109e+04 3.228e-10
 18.70446     88.6 1.120e+04 3.974e-10
 18.74082     90.4 1.137e+04 4.675e-10
 18.76085     89.4 1.123e+04 4.578e-10
 18.78456     91.1 1.122e+04 4.867e-10
 18.82461     92.8 1.116e+04 4.874e-10
 18.85910     94.6 1.108e+04 4.717e-10
 18.87913     94.5 1.101e+04 6.146e-10
 18.90471     96.6 1.090e+04 5.547e-10
 18.93928     98.6 1.076e+04 4.737e-10
 18.95930     98.2 1.031e+04 2.400e-10
 18.98480    100.2 1.025e+04 1.936e-10
 19.02485    102.1 1.024e+04 1.604e-10
 19.06490    104.1 1.024e+04 1.434e-10
 19.10495    106.1 1.030e+04 1.337e-10
 19.13773    108.1 1.025e+04 1.353e-10
 19.15775    108.6 1.016e+04 1.171e-10
 19.18504    110.8 1.021e+04 1.219e-10
 19.22509    112.9 1.024e+04 1.229e-10
 19.26324    115.0 1.024e+04 1.222e-10
 19.28326    115.4 1.016e+04 1.447e-10
 19.30519    117.4 1.021e+04 1.337e-10
 19.33618    119.5 1.026e+04 1.184e-10
 19.35620    119.8 1.027e+04 1.048e-10
 19.38529    121.7 1.030e+04 9.014e-11
 19.42533    123.6 1.029e+04 8.579e-11
 19.46538    125.6 1.029e+04 8.656e-11
 19.50543    127.5 1.031e+04 8.997e-11
 19.53463    129.3 1.037e+04 1.022e-10
 19.55465    129.6 1.034e+04 1.006e-10
 19.58553    131.4 1.043e+04 1.259e-10
 19.62558    133.2 1.056e+04 1.636e-10
 19.66563    135.0 1.071e+04 2.049e-10
 19.68740    136.5 1.083e+04 2.393e-10
 19.70742    135.9 1.083e+04 2.105e-10
 19.73308    137.0 1.083e+04 2.086e-10
 19.75311    137.2 1.074e+04 1.679e-10
 19.78577    138.0 1.064e+04 1.586e-10
 19.82582    138.6 1.055e+04 1.571e-10
 19.86587    139.1 1.053e+04 1.617e-10
 19.90592    139.5 1.051e+04 1.887e-10
 19.93153    139.8 1.064e+04 2.727e-10
 19.95156    140.1 1.054e+04 2.675e-10
 19.98601    140.6 1.089e+04 4.331e-10
 20.02606    141.2 1.133e+04 6.823e-10
 20.06611    141.5 1.168e+04 8.667e-10
 20.09154    141.4 1.172e+04 8.700e-10
 20.11156    140.4 1.131e+04 5.996e-10
 20.12998    140.3 1.118e+04 5.363e-10
 20.15001    140.7 1.097e+04 4.163e-10
 20.18625    140.6 1.075e+04 3.304e-10
 20.22630    140.7 1.055e+04 2.971e-10
 20.26635    140.9 1.053e+04 2.976e-10
 20.30640    141.3 1.052e+04 3.129e-10
 20.32844    141.8 1.054e+04 3.422e-10
 20.34846    142.5 1.037e+04 2.765e-10
 20.38650    143.1 1.041e+04 3.122e-10
 20.42654    143.6 1.040e+04 3.145e-10
 20.46659    144.2 1.035e+04 2.999e-10
 20.49567    145.0 1.024e+04 2.582e-10
 20.51570    145.2 1.024e+04 1.771e-10
 20.52689    146.0 1.014e+04 1.496e-10
 20.54691    146.6 1.007e+04 1.785e-10
 20.58674    147.5 9.972e+03 1.611e-10
 20.62679    148.5 9.895e+03 1.502e-10
 20.66684    149.7 9.835e+03 1.442e-10
 20.70531    150.9 9.790e+03 1.403e-10
 20.72534    151.5 9.782e+03 1.442e-10
 20.74693    152.8 9.755e+03 1.387e-10
 20.78698    154.3 9.739e+03 1.356e-10
 20.82703    155.7 9.739e+03 1.343e-10
 20.86708    157.2 9.742e+03 1.338e-10
 20.89981    158.6 9.752e+03 1.342e-10
 20.91647    158.8 9.761e+03 1.350e-10
 20.92379    159.3 9.764e+03 1.321e-10
 20.94717    160.7 9.761e+03 1.354e-10
 20.98722    162.0 9.763e+03 1.506e-10
 21.02727    163.4 9.834e+03 1.849e-10
 21.06732    164.7 9.992e+03 2.414e-10
 21.10222    166.1 1.020e+04 3.183e-10
 21.12224    166.4 1.036e+04 3.808e-10
 21.14742    167.4 1.049e+04 4.636e-10
 21.17735    167.8 1.053e+04 5.004e-10
 21.19728    168.3 1.056e+04 5.386e-10
 21.21126    169.1 1.068e+04 6.014e-10
 21.22127    169.3 1.079e+04 6.499e-10
 21.23733    170.0 1.103e+04 7.245e-10
 21.25735    170.6 1.127e+04 7.839e-10
 21.27738    171.0 1.150e+04 8.289e-10
 21.29740    171.3 1.169e+04 8.668e-10
 21.31048    171.6 1.184e+04 8.976e-10
 21.31683    171.5 1.178e+04 8.661e-10
 21.32377    171.2 1.162e+04 1.317e-09
 21.33745    171.4 1.165e+04 1.380e-09
 21.35747    171.8 1.165e+04 1.410e-09
 21.37750    172.2 1.164e+04 1.421e-09
 21.39752    172.6 1.165e+04 1.425e-09
 21.40971    173.2 1.169e+04 1.434e-09
 21.41972    173.1 1.165e+04 1.282e-09
 21.43757    173.7 1.173e+04 1.320e-09
 21.45760    174.4 1.184e+04 1.365e-09
 21.47762    175.1 1.194e+04 1.416e-09
 21.49764    175.8 1.201e+04 1.465e-09
 21.50894    176.6 1.208e+04 1.511e-09
 21.51711    176.4 1.205e+04 1.431e-09
 21.52584    176.2 1.189e+04 1.471e-09
 21.53769    177.0 1.192e+04 1.478e-09
 21.55772    177.8 1.193e+04 1.476e-09
 21.57774    178.5 1.193e+04 1.471e-09
 21.59777    179.2 1.194e+04 1.459e-09
 21.60816    179.9 1.194e+04 1.446e-09
 21.61817    179.9 1.184e+04 1.242e-09
 21.63781    180.6 1.189e+04 1.215e-09
 21.65784    181.3 1.191e+04 1.211e-09
 21.67786    182.0 1.198e+04 1.214e-09
 21.69738    182.6 1.219e+04 1.246e-09
 21.70739    182.3 1.223e+04 9.980e-10
 21.71790    182.3 1.253e+04 1.084e-09
 21.73792    180.4 1.227e+04 1.109e-09
 21.75796    180.1 1.245e+04 1.284e-09
 21.77798    179.8 1.261e+04 1.498e-09
 21.79660    179.5 1.277e+04 1.646e-09
 21.80661    178.7 1.272e+04 1.689e-09
 21.82814    178.0 1.251e+04 1.510e-09
 21.86829    177.1 1.226e+04 1.286e-09
 21.89602    177.0 1.164e+04 8.441e-10
 21.91605    177.0 1.130e+04 5.412e-10
 21.94838    176.9 1.039e+04 2.100e-10
 21.98843    176.8 9.450e+03 7.826e-11
 22.02848    177.0 9.066e+03 5.317e-11
 22.06853    178.3 8.975e+03 5.192e-11
 22.09447    180.6 8.959e+03 5.212e-11
 22.11450    180.7 8.909e+03 4.865e-11
 22.13224    183.2 8.885e+03 5.158e-11
 22.15227    183.6 8.853e+03 4.610e-11
 22.18867    185.9 8.876e+03 5.098e-11
 22.22872    188.1 8.938e+03 5.797e-11
 22.26877    190.3 9.012e+03 6.614e-11
 22.29293    192.4 9.071e+03 7.537e-11
 22.31295    192.5 9.095e+03 7.350e-11
 22.34887    194.6 9.153e+03 8.282e-11
 22.38892    196.8 9.211e+03 9.508e-11
 22.42896    198.9 9.250e+03 1.112e-10
 22.46901    200.9 9.344e+03 1.295e-10
 22.49138    202.9 9.461e+03 1.500e-10
 22.51140    202.7 9.597e+03 1.880e-10
 22.53638    204.7 9.713e+03 2.347e-10
 22.55640    205.7 9.698e+03 2.040e-10
 22.58916    207.6 9.855e+03 2.601e-10
 22.62921    209.4 9.936e+03 3.033e-10
 22.66926    210.9 9.922e+03 3.109e-10
 22.68983    212.4 9.894e+03 3.065e-10
 22.70985    212.4 1.010e+04 3.902e-10
 22.74935    213.8 9.920e+03 3.301e-10
 22.78940    215.3 9.683e+03 2.628e-10
 22.82945    216.9 9.444e+03 2.034e-10
 22.86826    218.4 9.225e+03 1.618e-10
 22.88828    218.3 9.049e+03 1.357e-10
 22.90955    219.9 8.864e+03 1.293e-10
 22.94052    221.8 8.852e+03 1.293e-10
 22.96054    222.8 8.950e+03 1.368e-10
 22.98964    224.7 8.944e+03 1.369e-10
 23.02969    226.6 8.931e+03 1.390e-10
 23.06671    228.6 8.925e+03 1.468e-10
 23.08673    228.9 8.886e+03 1.506e-10
 23.10979    231.0 8.924e+03 1.661e-10
 23.14984    233.0 8.977e+03 1.841e-10
 23.18988    235.1 9.045e+03 2.050e-10
 23.22993    237.2 9.148e+03 2.290e-10
 23.26516    239.3 9.292e+03 2.553e-10
 23.28518    239.6 9.269e+03 2.562e-10
 23.31003    241.6 9.487e+03 2.881e-10
 23.34465    243.4 9.744e+03 3.238e-10
 23.36468    244.0 9.852e+03 3.788e-10
 23.39013    245.8 1.010e+04 4.412e-10
 23.43017    247.0 1.027e+04 4.829e-10
 23.46011    247.8 1.030e+04 5.068e-10
 23.47343    248.5 1.032e+04 5.211e-10
 23.48354    248.7 1.039e+04 5.830e-10
 23.51027    250.4 1.046e+04 6.206e-10
 23.55032    251.9 1.049e+04 6.256e-10
 23.59037    253.3 1.050e+04 6.258e-10
 23.63042    254.8 1.049e+04 6.195e-10
 23.66206    256.4 1.045e+04 5.953e-10
 23.68199    257.3 1.066e+04 6.777e-10
 23.70031    258.1 1.063e+04 6.560e-10
 23.72033    258.9 1.059e+04 6.313e-10
 23.74035    259.8 1.054e+04 6.057e-10
 23.75861    260.7 1.048e+04 5.797e-10
 23.76862    261.0 1.030e+04 5.359e-10
 23.77110    261.9 1.025e+04 5.173e-10
 23.78112    261.9 1.024e+04 5.211e-10
 23.80043    262.9 1.020e+04 5.089e-10
 23.82045    264.0 1.018e+04 4.998e-10
 23.84048    265.1 1.016e+04 4.941e-10
 23.86032    266.2 1.016e+04 4.908e-10
 23.87033    266.2 1.011e+04 4.977e-10
 23.88052    267.3 1.012e+04 4.992e-10
 23.90055    268.5 1.015e+04 5.059e-10
 23.92057    269.7 1.018e+04 5.211e-10
 23.94060    270.8 1.022e+04 5.400e-10
 23.95954    272.0 1.029e+04 5.567e-10
 23.96955    272.2 1.020e+04 5.855e-10
 23.98064    273.6 1.021e+04 6.153e-10
 24.00067    274.8 1.028e+04 6.541e-10
 24.02069    276.0 1.036e+04 6.898e-10
 24.04072    277.3 1.043e+04 7.177e-10
 24.05877    278.5 1.051e+04 7.300e-10
 24.06878    279.0 1.052e+04 7.511e-10
 24.08077    280.3 1.055e+04 7.468e-10
 24.10079    281.6 1.059e+04 7.349e-10
 24.12081    282.9 1.065e+04 7.239e-10
 24.14084    284.1 1.069e+04 7.212e-10
 24.15799    285.4 1.075e+04 7.207e-10
 24.16801    285.9 1.075e+04 7.020e-10
 24.17276    287.1 1.080e+04 7.026e-10
 24.18277    287.3 1.086e+04 9.253e-10
 24.20091    288.5 1.099e+04 9.776e-10
 24.22094    289.6 1.118e+04 1.062e-09
 24.24096    290.7 1.142e+04 1.190e-09
 24.25722    291.8 1.174e+04 1.372e-09
 24.26723    292.3 1.167e+04 1.302e-09
 24.28101    293.4 1.205e+04 1.560e-09
 24.30103    294.4 1.253e+04 1.913e-09
 24.32106    295.5 1.312e+04 2.399e-09
 24.34108    296.5 1.381e+04 3.065e-09
 24.35645    297.2 1.449e+04 3.861e-09
 24.36646    297.8 1.489e+04 4.095e-09
 24.37482    298.0 1.552e+04 4.842e-09
 24.37978    297.9 1.565e+04 6.628e-09
 24.38604    298.2 1.618e+04 7.479e-09
 24.39605    298.5 1.671e+04 8.692e-09
 24.40596    298.6 1.722e+04 1.013e-08
 24.41097    298.6 1.739e+04 1.018e-08
 24.41607    298.7 1.790e+04 1.193e-08
 24.42609    298.6 1.843e+04 1.394e-08
 24.43610    298.0 1.902e+04 1.631e-08
 24.44611    297.0 1.967e+04 1.934e-08
 24.45557    295.7 2.029e+04 2.358e-08
 24.46058    295.4 2.121e+04 2.702e-08
 24.46613    293.9 2.169e+04 3.575e-08
 24.47576    292.5 2.198e+04 4.730e-08
 24.48077    294.2 2.102e+04 8.322e-08
 24.48616    293.2 2.124e+04 1.154e-07
 24.49617    291.8 2.170e+04 1.382e-07
 24.50519    289.5 2.194e+04 1.388e-07
 24.51019    288.7 2.243e+04 1.549e-07
 24.51619    285.8 2.233e+04 1.405e-07
 24.52621    284.9 2.200e+04 9.980e-08
 24.53622    284.8 2.162e+04 5.268e-08
 24.54623    284.7 2.118e+04 2.368e-08
 24.55485    283.4 2.018e+04 7.768e-09
 24.56491    282.0 1.964e+04 3.192e-09
 24.57689    274.7 1.386e+04 6.638e-10
 24.58690    274.2 1.365e+04 6.770e-10
 24.60139    266.4 1.125e+04 6.040e-10
 24.62142    265.2 1.093e+04 5.827e-10
 24.64144    265.4 1.091e+04 5.746e-10
 24.65412    266.0 1.091e+04 5.741e-10
 24.66413    266.1 1.084e+04 5.926e-10
 24.68149    266.9 1.092e+04 6.152e-10
 24.70152    267.6 1.110e+04 6.698e-10
 24.72154    267.9 1.135e+04 7.652e-10
 24.74156    267.9 1.164e+04 9.200e-10
 24.75335    267.8 1.205e+04 1.171e-09
 24.76336    267.8 1.242e+04 1.446e-09
 24.77896    267.7 1.303e+04 1.934e-09
 24.78897    267.6 1.287e+04 2.043e-09
 24.80164    267.6 1.365e+04 2.862e-09
 24.82166    267.6 1.448e+04 3.771e-09
 24.84169    267.3 1.526e+04 4.215e-09
 24.85257    266.1 1.547e+04 4.179e-09
 24.86259    265.9 1.542e+04 4.080e-09
 24.88173    264.3 1.548e+04 3.511e-09
 24.90176    262.5 1.515e+04 2.373e-09
 24.92178    260.4 1.423e+04 1.300e-09
 24.94179    257.8 1.253e+04 6.637e-10
 24.96181    255.1 1.075e+04 4.876e-10
 24.98103    254.6 1.061e+04 4.801e-10
 24.99104    254.4 1.076e+04 5.544e-10
 25.00188    254.3 1.070e+04 5.502e-10
 25.02190    254.4 1.070e+04 5.508e-10
 25.04101    254.6 1.073e+04 5.589e-10
 25.05103    254.7 1.093e+04 6.634e-10
 25.06195    254.7 1.106e+04 7.086e-10
 25.08198    254.6 1.127e+04 7.837e-10
 25.10200    254.4 1.160e+04 8.953e-10
 25.12202    254.1 1.200e+04 1.055e-09
 25.14024    253.6 1.243e+04 1.262e-09
 25.15025    253.1 1.252e+04 1.394e-09
 25.16207    252.5 1.282e+04 1.585e-09
 25.18210    252.0 1.308e+04 1.805e-09
 25.19311    251.4 1.327e+04 2.007e-09
 25.20312    251.9 1.272e+04 1.603e-09
 25.22215    251.4 1.285e+04 1.734e-09
 25.23946    251.0 1.286e+04 1.769e-09
 25.24948    250.5 1.261e+04 1.597e-09
 25.26219    250.5 1.260e+04 1.589e-09
 25.28222    250.5 1.255e+04 1.548e-09
 25.30224    250.8 1.245e+04 1.474e-09
 25.32227    251.1 1.237e+04 1.416e-09
 25.33869    251.6 1.237e+04 1.410e-09
 25.34870    250.9 1.209e+04 1.274e-09
 25.36231    251.3 1.211e+04 1.294e-09
 25.38234    251.8 1.220e+04 1.377e-09
 25.39518    252.1 1.240e+04 1.545e-09
 25.40519    253.2 1.242e+04 1.413e-09
 25.42239    253.5 1.267e+04 1.636e-09
 25.43792    253.9 1.295e+04 1.948e-09
 25.44793    253.1 1.281e+04 1.967e-09
 25.46244    253.7 1.317e+04 2.349e-09
 25.48246    254.5 1.353e+04 2.774e-09
 25.50248    255.3 1.385e+04 3.189e-09
 25.52251    256.0 1.409e+04 3.445e-09
 25.53714    256.6 1.411e+04 3.423e-09
 25.54715    256.2 1.335e+04 2.361e-09
 25.56256    256.6 1.326e+04 2.107e-09
 25.58258    256.9 1.304e+04 1.781e-09
 25.59725    257.0 1.267e+04 1.435e-09
 25.60726    258.1 1.317e+04 1.933e-09
 25.62263    258.2 1.282e+04 1.540e-09
 25.63637    258.0 1.236e+04 1.212e-09
 25.64638    256.3 1.103e+04 6.971e-10
 25.66268    255.9 1.054e+04 6.423e-10
 25.68270    255.6 1.048e+04 6.482e-10
 25.70273    255.5 1.049e+04 6.876e-10
 25.72275    255.4 1.072e+04 8.077e-10
 25.73559    255.3 1.120e+04 1.025e-09
 25.74561    254.5 1.097e+04 9.200e-10
 25.76280    254.4 1.155e+04 1.215e-09
 25.78282    254.2 1.215e+04 1.588e-09
 25.79931    253.9 1.277e+04 2.026e-09
 25.80933    253.8 1.304e+04 2.189e-09
 25.82287    253.0 1.375e+04 2.784e-09
 25.83482    251.6 1.444e+04 3.408e-09
 25.84483    249.7 1.380e+04 2.591e-09
 25.86292    247.4 1.438e+04 3.050e-09
 25.88294    244.6 1.485e+04 3.485e-09
 25.90297    241.7 1.515e+04 3.769e-09
 25.92299    238.5 1.520e+04 3.797e-09
 25.93404    235.4 1.517e+04 3.752e-09
 25.94406    234.5 1.460e+04 3.305e-09
 25.96304    231.9 1.457e+04 3.234e-09
 25.98306    229.3 1.440e+04 3.072e-09
 26.00138    226.9 1.416e+04 2.941e-09
 26.01139    225.6 1.403e+04 2.711e-09
 26.02311    223.8 1.395e+04 2.676e-09
 26.03327    222.2 1.401e+04 2.714e-09
 26.04328    222.0 1.384e+04 2.456e-09
 26.06316    220.0 1.439e+04 2.803e-09
 26.08319    218.0 1.535e+04 3.621e-09
 26.10321    216.7 1.614e+04 4.545e-09
 26.11818    216.0 1.641e+04 4.971e-09
 26.12739    215.5 1.675e+04 5.468e-09
 26.13240    215.3 1.674e+04 5.637e-09
 26.13815    214.7 1.724e+04 6.637e-09
 26.14817    214.2 1.773e+04 8.082e-09
 26.15818    214.0 1.814e+04 1.010e-08
 26.16819    214.1 1.841e+04 1.274e-08
 26.17701    214.2 1.871e+04 1.599e-08
 26.18201    214.8 1.846e+04 1.774e-08
 26.18822    214.9 1.907e+04 2.212e-08
 26.19823    214.7 2.089e+04 3.098e-08
 26.20824    213.3 2.338e+04 6.253e-08
 26.21337    210.7 2.404e+04 1.793e-07
 26.21837    212.6 2.465e+04 8.907e-08
 26.22662    209.2 2.407e+04 2.939e-07
 26.23162    211.1 2.441e+04 2.140e-07
 26.23828    206.9 2.298e+04 6.162e-07
 26.24829    202.2 2.180e+04 1.179e-06
 26.25830    197.4 2.165e+04 1.280e-06
 26.26831    192.6 2.213e+04 1.093e-06
 26.27623    187.6 2.386e+04 6.430e-07
 26.28124    188.7 2.235e+04 1.015e-06
 26.28834    183.8 2.521e+04 4.533e-07
 26.29835    178.5 3.266e+04 1.234e-07
 26.30836    172.6 4.658e+04 2.411e-08
 26.31440    167.5 5.832e+04 7.020e-09
 26.31941    178.1 3.087e+04 1.124e-07
 26.32584    173.6 4.161e+04 3.046e-08
 26.33085    174.6 3.905e+04 3.594e-08
 26.33840    169.8 5.288e+04 9.208e-09
 26.34841    166.5 6.497e+04 3.149e-09
 26.35842    165.8 5.323e+04 3.522e-09
 26.36843    165.8 4.868e+04 3.210e-09
 26.38350    156.2 3.339e+04 1.262e-09
 26.40357    151.3 1.351e+04 1.049e-09
 26.41553    149.3 1.063e+04 9.255e-10
 26.42211    150.7 1.626e+04 5.266e-10
 26.43017    150.5 1.612e+04 5.679e-10
 26.44362    147.9 1.059e+04 5.733e-10
 26.47376    149.1 1.011e+04 5.596e-10
 26.51390    150.9 9.496e+03 4.049e-10
 26.55395    154.4 9.375e+03 3.250e-10
 26.59400    158.4 9.220e+03 2.961e-10
 26.61779    162.4 9.080e+03 2.845e-10
 26.62258    161.7 8.953e+03 2.655e-10
 26.63883    162.5 9.473e+03 3.632e-10
 26.67409    166.6 9.428e+03 3.640e-10
 26.71414    171.4 9.513e+03 3.732e-10
 26.74408    173.6 9.444e+03 3.758e-10
 26.76401    175.5 9.410e+03 3.857e-10
 26.78403    177.5 9.435e+03 4.066e-10
 26.80406    179.5 9.509e+03 4.351e-10
 26.81706    181.4 9.603e+03 4.701e-10
 26.82266    181.9 9.881e+03 5.634e-10
 26.82968    182.0 1.011e+04 6.367e-10
 26.84411    183.8 1.025e+04 6.860e-10
 26.86413    185.6 1.039e+04 7.416e-10
 26.88415    187.4 1.056e+04 8.062e-10
 26.90418    189.3 1.075e+04 8.826e-10
 26.91629    191.0 1.095e+04 9.695e-10
 26.92630    191.3 1.129e+04 1.129e-09
 26.94423    193.0 1.147e+04 1.221e-09
 26.96425    194.7 1.164e+04 1.312e-09
 26.98427    196.4 1.181e+04 1.402e-09
 27.00430    197.9 1.197e+04 1.492e-09
 27.01552    199.5 1.212e+04 1.582e-09
 27.02294    199.7 1.213e+04 1.578e-09
 27.03175    200.0 1.233e+04 1.708e-09
 27.04435    201.5 1.240e+04 1.735e-09
 27.06437    202.9 1.242e+04 1.729e-09
 27.08440    204.3 1.242e+04 1.704e-09
 27.10442    205.7 1.238e+04 1.652e-09
 27.11474    207.0 1.232e+04 1.583e-09
 27.12475    207.2 1.178e+04 1.192e-09
 27.14447    208.5 1.169e+04 1.135e-09
 27.16449    209.8 1.161e+04 1.085e-09
 27.18452    211.2 1.151e+04 1.041e-09
 27.20395    212.6 1.142e+04 1.006e-09
 27.21397    212.5 1.091e+04 8.025e-10
 27.22380    214.1 1.091e+04 8.035e-10
 27.23382    214.2 1.064e+04 6.872e-10
 27.24459    215.8 1.064e+04 6.892e-10
 27.26461    217.4 1.066e+04 6.984e-10
 27.28464    219.1 1.071e+04 7.178e-10
 27.30318    220.8 1.080e+04 7.478e-10
 27.31319    221.1 1.040e+04 6.063e-10
 27.32469    222.8 1.051e+04 6.381e-10
 27.34471    224.5 1.064e+04 6.754e-10
 27.36473    226.3 1.077e+04 7.136e-10
 27.38476    228.1 1.089e+04 7.464e-10
 27.40241    229.9 1.098e+04 7.731e-10
 27.41242    229.9 1.055e+04 5.883e-10
 27.42481    231.6 1.064e+04 5.890e-10
 27.43589    233.4 1.066e+04 5.843e-10
 27.44590    233.5 1.049e+04 5.547e-10
 27.46486    235.3 1.060e+04 5.534e-10
 27.48488    237.1 1.061e+04 5.488e-10
 27.50163    238.9 1.063e+04 5.403e-10
 27.51164    238.4 1.026e+04 4.164e-10
 27.52493    239.9 1.027e+04 4.057e-10
 27.54495    242.1 1.031e+04 3.938e-10
 27.56498    243.5 1.031e+04 3.846e-10
 27.58500    245.7 1.034e+04 3.622e-10
 27.60086    247.3 1.035e+04 3.483e-10
 27.61097    245.9 1.008e+04 3.199e-10
 27.63526    249.7 1.028e+04 3.023e-10
 27.67530    253.6 1.052e+04 2.907e-10
 27.71535    256.6 1.068e+04 2.853e-10
 27.74529    259.1 1.075e+04 2.925e-10
 27.76522    261.2 1.087e+04 3.067e-10
 27.78524    263.1 1.097e+04 3.190e-10
 27.79931    264.8 1.102e+04 3.320e-10
 27.80932    264.1 1.091e+04 3.117e-10
 27.82529    265.8 1.098e+04 3.294e-10
 27.84002    267.4 1.126e+04 3.853e-10
 27.85003    267.3 1.326e+04 7.898e-10
 27.86028    268.5 1.324e+04 7.579e-10
 27.87025    269.3 1.323e+04 7.826e-10
 27.88026    269.7 1.354e+04 8.124e-10
 27.89027    269.4 1.517e+04 8.814e-10
 27.89844    266.8 2.275e+04 1.158e-09
 27.90344    267.3 1.759e+04 8.991e-10
 27.91030    259.1 3.123e+04 1.605e-09
 27.91778    251.3 4.301e+04 2.858e-09
 27.92276    240.6 4.759e+04 9.619e-09
 27.92570    234.0 3.554e+04 9.301e-08
 27.92820    231.8 3.427e+04 6.561e-08
 27.93277    230.9 2.587e+04 4.575e-07
 27.93778    231.3 2.171e+04 1.560e-06
 27.94279    232.4 1.990e+04 2.617e-06
 27.94592    232.5 1.978e+04 2.566e-06
 27.94842    233.5 1.932e+04 2.886e-06
 27.95050    233.2 1.962e+04 1.988e-06
 27.95303    230.5 2.050e+04 1.299e-06
 27.96036    227.6 2.529e+04 3.676e-07
 27.97037    220.4 4.719e+04 2.141e-08
 27.98038    201.2 9.258e+04 7.405e-10
 27.99039    177.7 4.159e+04 1.230e-09
 27.99766    163.9 1.638e+04 2.424e-09
 28.00267    164.2 1.568e+04 2.226e-09
 28.01042    160.5 1.524e+04 2.276e-09
 28.02043    157.2 1.561e+04 2.457e-09
 28.03044    154.2 1.620e+04 2.666e-09
 28.04045    150.7 1.714e+04 3.022e-09
 28.04700    146.3 1.840e+04 3.800e-09
 28.05205    150.2 1.642e+04 2.206e-09
 28.06053    145.1 1.770e+04 2.942e-09
 28.07049    140.4 1.862e+04 4.015e-09
 28.08050    135.7 1.950e+04 5.921e-09
 28.09051    131.1 2.101e+04 9.382e-09
 28.09689    126.2 2.377e+04 1.603e-08
 28.10189    128.7 2.188e+04 1.210e-08
 28.11054    123.9 2.465e+04 2.118e-08
 28.12055    119.3 2.722e+04 3.534e-08
 28.13056    115.3 2.938e+04 4.566e-08
 28.14057    111.5 2.995e+04 4.505e-08
 28.14650    107.9 3.025e+04 3.812e-08
 28.14895    110.2 2.968e+04 4.394e-08
 28.15304    114.0 2.818e+04 5.035e-08
 28.16060    110.4 2.852e+04 4.591e-08
 28.17061    107.3 2.909e+04 3.221e-08
 28.18062    103.4 2.885e+04 1.865e-08
 28.19063     99.9 2.708e+04 1.074e-08
 28.19616     95.4 2.105e+04 4.626e-09
 28.20622     97.9 2.532e+04 5.417e-09
 28.22577     95.1 1.692e+04 2.972e-09
 28.24416     95.3 1.461e+04 2.499e-09
 28.25417     96.9 1.665e+04 2.937e-09
 28.26582     97.2 1.464e+04 2.501e-09
 28.28543     98.1 1.425e+04 2.271e-09
 28.29544     98.9 1.360e+04 2.037e-09
 28.30587    100.5 1.342e+04 1.816e-09
 28.32590    102.2 1.314e+04 1.567e-09
 28.34592    103.7 1.271e+04 1.329e-09
 28.36594    105.1 1.222e+04 1.136e-09
 28.38465    106.5 1.179e+04 9.929e-10
 28.39466    107.4 1.181e+04 9.698e-10
 28.40599    108.8 1.144e+04 8.501e-10
 28.42602    110.3 1.113e+04 7.534e-10
 28.44604    111.9 1.087e+04 6.677e-10
 28.45624    113.4 1.062e+04 5.818e-10
 28.46625    114.3 1.151e+04 9.528e-10
 28.48388    116.0 1.149e+04 8.972e-10
 28.49389    116.7 1.185e+04 9.404e-10
 28.50611    118.2 1.175e+04 8.310e-10
 28.52614    119.6 1.149e+04 6.823e-10
 28.54616    120.7 1.103e+04 5.236e-10
 28.56619    121.2 1.038e+04 3.960e-10
 28.58310    121.6 9.645e+03 3.224e-10
 28.59311    122.4 1.023e+04 3.534e-10
 28.60623    122.7 9.546e+03 3.211e-10
 28.62626    123.0 9.510e+03 3.281e-10
 28.64628    123.2 9.572e+03 3.664e-10
 28.65831    123.4 9.870e+03 4.608e-10
 28.66832    124.8 1.043e+04 5.383e-10
 28.68233    124.3 1.055e+04 6.702e-10
 28.69234    124.9 1.117e+04 7.236e-10
 28.70636    124.0 1.155e+04 1.027e-09
 28.72638    122.9 1.242e+04 1.640e-09
 28.74640    122.0 1.360e+04 2.794e-09
 28.76643    121.4 1.506e+04 5.064e-09
 28.78155    121.1 1.711e+04 9.072e-09
 28.79157    120.3 1.882e+04 1.178e-08
 28.80648    119.1 2.086e+04 1.941e-08
 28.82145    118.7 2.115e+04 1.970e-08
 28.83107    117.9 2.139e+04 1.984e-08
 28.83608    117.1 2.208e+04 2.319e-08
 28.84648    115.6 2.178e+04 2.066e-08
 28.86038    114.5 2.102e+04 1.570e-08
 28.87039    116.7 2.007e+04 1.372e-08
 28.88078    115.8 1.916e+04 8.807e-09
 28.89079    114.5 1.983e+04 1.056e-08
 28.90660    113.5 1.807e+04 5.979e-09
 28.92662    112.4 1.606e+04 3.369e-09
 28.94665    111.6 1.426e+04 2.100e-09
 28.96667    111.5 1.321e+04 1.475e-09
 28.98001    112.0 1.271e+04 1.120e-09
 28.99002    110.9 1.265e+04 1.210e-09
 29.00672    112.0 1.228e+04 9.987e-10
 29.02674    113.4 1.196e+04 8.797e-10
 29.04677    114.6 1.168e+04 8.275e-10
 29.06244    115.9 1.148e+04 8.054e-10
 29.07246    116.6 1.162e+04 7.638e-10
 29.07923    117.9 1.148e+04 7.695e-10
 29.08924    117.5 1.156e+04 8.909e-10
 29.10684    118.9 1.154e+04 8.962e-10
 29.12686    120.2 1.151e+04 9.298e-10
 29.14689    121.4 1.158e+04 9.983e-10
 29.16691    122.6 1.172e+04 1.080e-09
 29.17846    123.7 1.188e+04 1.177e-09
 29.18847    123.6 1.180e+04 1.134e-09
 29.20696    124.8 1.178e+04 1.120e-09
 29.22698    125.9 1.170e+04 1.066e-09
 29.24701    127.0 1.155e+04 9.780e-10
 29.26451    128.0 1.135e+04 8.713e-10
 29.27452    128.6 1.170e+04 1.077e-09
 29.27768    129.6 1.147e+04 9.482e-10
 29.28769    129.1 1.114e+04 6.717e-10
 29.30708    129.7 1.093e+04 5.806e-10
 29.32711    130.3 1.072e+04 5.102e-10
 29.34713    131.0 1.052e+04 4.606e-10
 29.36690    131.5 1.031e+04 4.257e-10
 29.37701    129.9 9.755e+03 3.032e-10
 29.39739    132.0 9.608e+03 3.028e-10
 29.43743    134.1 9.510e+03 3.022e-10
 29.46678    136.2 9.397e+03 2.928e-10
 29.48680    136.9 9.505e+03 3.268e-10
 29.51753    139.1 9.338e+03 3.043e-10
 29.55553    141.2 9.254e+03 2.885e-10
 29.57556    141.2 8.961e+03 2.195e-10
 29.59763    143.5 8.951e+03 2.165e-10
 29.63768    145.6 8.984e+03 2.201e-10
 29.67772    147.7 9.130e+03 2.402e-10
 29.71777    149.4 9.342e+03 2.828e-10
 29.75398    150.3 9.430e+03 3.242e-10
 29.77401    151.2 9.189e+03 2.852e-10
 29.79787    152.1 9.343e+03 3.486e-10
 29.82781    153.2 9.452e+03 4.210e-10
 29.84773    154.7 9.704e+03 5.191e-10
 29.86302    155.9 1.005e+04 6.309e-10
 29.87304    155.7 9.861e+03 5.556e-10
 29.88073    156.4 1.012e+04 6.311e-10
 29.89074    157.3 1.045e+04 7.855e-10
 29.90781    157.4 1.069e+04 8.445e-10
 29.92783    157.3 1.088e+04 8.949e-10
 29.94786    156.9 1.112e+04 9.711e-10
 29.96225    156.3 1.140e+04 1.087e-09
 29.97226    156.6 1.091e+04 8.735e-10
 29.98790    156.1 1.111e+04 9.625e-10
 30.00793    155.7 1.120e+04 1.027e-09
 30.02795    155.5 1.120e+04 1.038e-09
 30.04798    155.6 1.119e+04 1.036e-09
 30.06148    155.7 1.113e+04 1.014e-09
 30.07149    156.4 1.081e+04 8.579e-10
 30.08280    156.6 1.082e+04 8.594e-10
 30.09281    155.9 1.103e+04 9.399e-10
 30.10805    156.3 1.111e+04 9.680e-10
 30.12807    156.7 1.124e+04 1.019e-09
 30.14810    157.2 1.143e+04 1.098e-09
 30.16070    157.9 1.163e+04 1.192e-09
 30.17071    158.5 1.160e+04 1.150e-09
 30.18815    159.3 1.186e+04 1.309e-09
 30.20817    160.1 1.207e+04 1.442e-09
 30.22819    161.1 1.219e+04 1.495e-09
 30.24822    162.0 1.220e+04 1.488e-09
 30.25993    163.0 1.216e+04 1.441e-09
 30.26994    163.7 1.262e+04 1.721e-09
 30.28487    164.6 1.262e+04 1.678e-09
 30.29488    163.4 1.299e+04 1.771e-09
 30.30829    164.0 1.285e+04 1.640e-09
 30.32832    164.5 1.256e+04 1.494e-09
 30.34834    165.0 1.222e+04 1.380e-09
 30.35915    165.6 1.190e+04 1.356e-09
 30.36917    166.3 1.281e+04 1.660e-09
 30.38839    166.8 1.264e+04 1.664e-09
 30.40841    167.3 1.261e+04 1.707e-09
 30.42844    167.6 1.267e+04 1.917e-09
 30.44837    167.7 1.311e+04 2.339e-09
 30.46839    167.1 1.496e+04 3.995e-09
 30.48693    166.6 1.580e+04 5.260e-09
 30.49695    166.8 1.579e+04 5.218e-09
 30.50853    166.2 1.654e+04 6.535e-09
 30.52856    165.2 1.696e+04 7.140e-09
 30.54759    164.0 1.695e+04 7.066e-09
 30.55760    162.7 1.811e+04 9.503e-09
 30.56861    161.9 1.748e+04 7.942e-09
 30.58863    161.7 1.644e+04 5.713e-09
 30.60865    161.4 1.504e+04 3.627e-09
 30.62868    160.5 1.336e+04 2.168e-09
 30.64682    158.9 1.197e+04 1.397e-09
 30.65683    156.3 1.263e+04 1.428e-09
 30.66873    155.0 1.263e+04 1.367e-09
 30.68875    154.5 1.280e+04 1.395e-09
 30.69901    154.1 1.343e+04 1.542e-09
 30.70903    150.2 1.833e+04 4.321e-09
 30.72880    148.9 1.901e+04 6.150e-09
 30.74604    147.7 1.940e+04 9.015e-09
 30.75601    146.3 2.013e+04 1.188e-08
 30.76374    146.3 2.020e+04 1.316e-08
 30.77376    146.1 2.042e+04 1.558e-08
 30.78377    145.6 2.083e+04 1.930e-08
 30.79378    145.0 2.128e+04 2.401e-08
 30.79995    144.4 2.165e+04 2.882e-08
 30.80173    143.6 2.170e+04 2.848e-08
 30.80557    142.4 2.176e+04 3.431e-08
 30.81380    141.9 2.194e+04 3.467e-08
 30.82382    141.1 2.213e+04 3.319e-08
 30.83383    139.8 2.247e+04 2.944e-08
 30.84384    137.8 2.288e+04 2.501e-08
 30.85018    134.9 2.310e+04 2.103e-08
 30.85518    133.3 2.260e+04 1.790e-08
 30.86387    129.6 2.217e+04 1.590e-08
 30.87388    125.8 2.145e+04 1.519e-08
 30.88389    122.7 2.067e+04 1.538e-08
 30.89390    120.1 2.035e+04 1.582e-08
 30.89979    118.1 2.011e+04 1.687e-08
 30.90187    116.4 1.998e+04 1.597e-08
 30.91105    114.6 1.990e+04 1.503e-08
 30.92904    112.1 2.033e+04 1.511e-08
 30.94450    109.9 2.055e+04 1.293e-08
 30.95446    108.6 2.171e+04 1.730e-08
 30.96904    105.6 2.150e+04 1.034e-08
 30.98911    101.3 1.973e+04 5.067e-09
 31.00914     95.8 1.587e+04 2.822e-09
 31.02916     92.8 1.342e+04 2.502e-09
 31.04372     92.5 1.327e+04 2.497e-09
 31.05373     92.1 1.314e+04 2.417e-09
 31.06921     92.5 1.305e+04 2.325e-09
 31.08924     93.1 1.307e+04 2.188e-09
 31.10315     93.4 1.320e+04 1.982e-09
 31.11316     90.8 1.316e+04 1.366e-09
 31.12928     90.1 1.294e+04 1.143e-09
 31.14295     89.3 1.262e+04 1.013e-09
 31.15296     89.0 1.225e+04 8.602e-10
 31.16933     88.8 1.200e+04 8.043e-10
 31.18936     88.8 1.168e+04 7.467e-10
 31.20938     88.6 1.150e+04 7.483e-10
 31.22940     88.4 1.148e+04 7.679e-10
 31.24217     88.2 1.150e+04 8.491e-10
 31.25218     88.3 1.113e+04 7.181e-10
 31.26945     88.2 1.143e+04 9.002e-10
 31.28948     88.4 1.185e+04 1.160e-09
 31.30522     88.8 1.229e+04 1.468e-09
 31.31523     88.0 1.286e+04 1.998e-09
 31.32953     88.6 1.314e+04 2.168e-09
 31.34140     89.0 1.315e+04 2.150e-09
 31.35141     89.4 1.307e+04 2.127e-09
 31.36957     89.9 1.294e+04 1.991e-09
 31.38960     90.7 1.264e+04 1.725e-09
 31.40962     91.2 1.229e+04 1.435e-09
 31.42965     91.6 1.197e+04 1.179e-09
 31.44062     91.8 1.172e+04 1.018e-09
 31.45064     92.0 1.143e+04 8.449e-10
 31.46970     92.2 1.126e+04 8.137e-10
 31.48972     92.6 1.124e+04 8.133e-10
 31.50729     93.2 1.124e+04 8.227e-10
 31.51730     92.4 1.105e+04 7.449e-10
 31.52977     93.2 1.107e+04 7.310e-10
 31.54979     94.5 1.101e+04 6.823e-10
 31.56982     95.5 1.105e+04 6.454e-10
 31.59995     95.6 1.102e+04 5.318e-10
 31.64010     96.4 1.076e+04 4.174e-10
 31.68014     96.5 1.026e+04 3.084e-10
 31.71847     96.4 9.872e+03 2.434e-10
 31.73850     98.1 9.969e+03 2.464e-10
 31.76024     97.7 9.556e+03 1.867e-10
 31.80029     97.3 9.479e+03 1.744e-10
 31.84034     97.1 9.503e+03 1.810e-10
 31.88039     97.1 9.662e+03 2.157e-10
 31.91162     97.2 1.000e+04 2.743e-10
 31.92813     97.0 1.021e+04 3.159e-10
 31.93695     97.0 1.020e+04 3.066e-10
 31.96048     97.0 1.040e+04 3.526e-10
 32.00053     97.1 1.054e+04 3.804e-10
 32.04058     97.3 1.064e+04 3.844e-10
 32.08063     97.3 1.067e+04 3.788e-10
 32.11538     97.5 1.061e+04 3.567e-10
 32.13540     98.1 1.050e+04 3.412e-10
 32.16073     98.3 1.023e+04 2.765e-10
 32.20077     98.5 1.007e+04 2.514e-10
 32.24082     98.9 1.008e+04 2.544e-10
 32.28087     99.3 1.014e+04 2.656e-10
 32.31383     99.6 1.026e+04 2.864e-10
 32.32869    100.2 1.050e+04 3.269e-10
 32.33578     98.4 1.046e+04 3.739e-10
 32.36097     99.1 1.060e+04 4.095e-10
 32.39091     99.1 1.059e+04 4.022e-10
 32.41083     99.1 1.057e+04 3.858e-10
 32.42287     99.0 1.049e+04 3.660e-10
 32.43288     99.6 1.056e+04 4.065e-10
 32.45088     99.6 1.045e+04 3.815e-10
 32.47091     99.4 1.025e+04 3.525e-10
 32.49093     99.3 1.005e+04 3.378e-10
 32.51095     99.3 1.001e+04 3.394e-10
 32.52209     99.4 1.002e+04 3.567e-10
 32.52877    100.1 1.025e+04 3.886e-10
 32.53765     99.2 1.003e+04 3.705e-10
 32.55100     99.5 1.021e+04 4.223e-10
 32.57103     99.8 1.059e+04 5.241e-10
 32.59105     99.8 1.131e+04 7.112e-10
 32.61107     99.7 1.241e+04 1.027e-09
 32.62132     99.2 1.391e+04 1.582e-09
 32.63133    100.5 1.441e+04 1.659e-09
 32.65112    101.2 1.629e+04 2.619e-09
 32.67115    102.2 1.775e+04 3.730e-09
 32.68612    102.8 1.816e+04 3.979e-09
 32.69608    103.2 1.806e+04 4.042e-09
 32.70609    103.7 1.820e+04 4.158e-09
 32.71544    104.1 1.838e+04 4.277e-09
 32.72045    105.8 1.852e+04 4.653e-09
 32.72612    106.3 1.896e+04 4.862e-09
 32.73462    106.7 1.933e+04 5.082e-09
 32.73967    106.9 1.770e+04 3.362e-09
 32.74619    107.0 1.791e+04 3.344e-09
 32.75615    107.3 1.801e+04 3.252e-09
 32.76506    107.6 1.821e+04 3.235e-09
 32.77006    109.1 1.988e+04 3.952e-09
 32.77618    109.5 2.005e+04 3.901e-09
 32.78619    109.5 2.028e+04 3.872e-09
 32.79620    109.2 2.030e+04 3.806e-09
 32.80621    108.4 1.996e+04 3.755e-09
 32.81467    107.5 1.912e+04 3.638e-09
 32.81967    114.1 2.248e+04 4.591e-09
 32.82624    113.6 2.129e+04 4.412e-09
 32.83565    112.8 1.977e+04 4.104e-09
 32.84066    111.3 1.778e+04 2.852e-09
 32.84626    111.0 1.741e+04 3.075e-09
 32.85627    110.9 1.749e+04 3.372e-09
 32.86428    108.9 2.038e+04 4.502e-09
 32.86929    114.3 1.780e+04 3.568e-09
 32.87630    109.7 2.461e+04 6.235e-09
 32.88631     98.6 3.168e+04 2.897e-08
 32.89632     89.6 2.899e+04 9.342e-08
 32.90633     82.9 2.770e+04 1.023e-07
 32.91389     76.4 2.693e+04 7.787e-08
 32.91890     83.4 2.736e+04 1.117e-07
 32.92636     73.3 2.959e+04 5.297e-08
 32.93637     54.2 3.903e+04 1.279e-08
 32.94169     23.1 4.025e+04 3.927e-09
 32.94670     34.4 4.094e+04 3.213e-09
 32.95639     11.3 2.347e+04 2.597e-09
 32.96351      1.6 1.962e+04 3.653e-09
 32.96851     -2.5 2.013e+04 3.978e-09
 32.97642     -5.9 1.983e+04 4.721e-09
 32.98643     -8.2 1.859e+04 5.414e-09
 32.99644     -8.5 1.864e+04 5.666e-09
 33.00645     -9.0 1.798e+04 5.744e-09
 33.01312     -8.3 1.831e+04 5.759e-09
 33.01813    -15.0 2.906e+04 8.397e-09
 33.02648    -16.4 3.683e+04 9.418e-09
 33.03649    -19.7 4.447e+04 1.230e-08
 33.04273    -22.8 4.416e+04 2.547e-08
 33.04773    -19.2 4.480e+04 1.039e-08
 33.05652    -20.2 4.652e+04 1.931e-08
 33.06273    -19.9 4.146e+04 3.649e-08
 33.06774    -22.8 2.600e+04 2.819e-07
 33.07401    -22.6 2.633e+04 2.602e-07
 33.07899    -22.7 2.643e+04 2.586e-07
 33.08400    -22.2 2.720e+04 1.910e-07
 33.08749    -21.8 3.068e+04 1.001e-07
 33.08999    -20.8 2.905e+04 1.579e-07
 33.09654    -24.5 3.329e+04 4.636e-08
 33.10658    -27.3 3.372e+04 2.407e-08
 33.11235    -29.4 3.016e+04 1.989e-08
 33.11735    -35.1 2.311e+04 3.982e-08
 33.12660    -32.6 2.231e+04 3.561e-08
 33.13661    -30.7 2.238e+04 3.194e-08
 33.14376    -29.1 2.255e+04 2.824e-08
 33.14877    -29.1 2.450e+04 2.082e-08
 33.15664    -28.5 2.439e+04 1.994e-08
 33.16196    -28.5 2.420e+04 1.927e-08
 33.16696    -28.5 2.320e+04 2.485e-08
 33.17666    -28.4 2.400e+04 2.559e-08
 33.18667    -29.8 2.402e+04 2.558e-08
 33.19668    -31.0 2.381e+04 2.603e-08
 33.20657    -32.4 2.298e+04 2.781e-08
 33.21157    -31.7 2.407e+04 3.215e-08
 33.21671    -32.5 2.296e+04 3.567e-08
 33.22672    -32.8 2.182e+04 3.937e-08
 33.23673    -32.8 2.115e+04 4.302e-08
 33.24480    -32.5 2.100e+04 4.672e-08
 33.24980    -32.6 2.078e+04 4.793e-08
 33.25618    -32.4 2.075e+04 4.789e-08
 33.26118    -32.4 2.050e+04 3.980e-08
 33.26677    -31.6 2.035e+04 3.163e-08
 33.27678    -31.4 1.998e+04 2.315e-08
 33.28679    -31.7 1.945e+04 1.671e-08
 33.29681    -32.2 1.901e+04 1.290e-08
 33.30584    -33.0 1.832e+04 9.480e-09
 33.31590    -33.1 1.798e+04 7.887e-09
 33.33195    -34.6 1.666e+04 4.816e-09
 33.34593    -36.5 1.455e+04 2.807e-09
 33.35594    -37.6 1.376e+04 2.312e-09
 33.37199    -38.3 1.231e+04 1.600e-09
 33.39202    -38.3 1.173e+04 1.293e-09
 33.40511    -37.7 1.131e+04 1.106e-09
 33.41513    -37.0 1.148e+04 1.216e-09
 33.43207    -36.6 1.115e+04 1.059e-09
 33.45209    -36.2 1.085e+04 9.283e-10
 33.47211    -35.8 1.058e+04 8.164e-10
 33.49214    -35.4 1.033e+04 7.189e-10
 33.50434    -35.1 1.014e+04 6.331e-10
 33.52446    -34.2 1.037e+04 7.102e-10
 33.54819    -34.3 9.936e+03 6.061e-10
 33.56822    -35.9 9.821e+03 5.347e-10
 33.60247    -35.3 9.332e+03 3.975e-10
 33.64252    -35.3 9.049e+03 3.198e-10
 33.68256    -35.6 8.837e+03 2.758e-10
 33.70299    -36.2 8.794e+03 2.647e-10
 33.72301    -34.5 8.846e+03 2.738e-10
 33.76266    -35.1 8.848e+03 2.680e-10
 33.80271    -35.6 9.055e+03 3.033e-10
 33.84276    -36.2 9.262e+03 3.562e-10
 33.88141    -36.6 9.457e+03 4.054e-10
 33.90144    -35.1 9.451e+03 3.840e-10
 33.92285    -35.1 9.584e+03 4.147e-10
 33.95233    -35.1 9.582e+03 3.954e-10
 33.97235    -36.3 9.803e+03 4.581e-10
 34.00295    -36.7 9.574e+03 3.864e-10
 34.04300    -37.3 9.335e+03 3.444e-10
 34.07987    -37.4 9.136e+03 3.170e-10
 34.09989    -35.6 9.113e+03 3.104e-10
 34.12310    -35.3 9.075e+03 3.075e-10
 34.16315    -34.5 9.026e+03 3.046e-10
 34.20319    -33.6 8.878e+03 2.645e-10
 34.24324    -32.6 8.627e+03 2.030e-10
 34.27832    -32.0 8.389e+03 1.521e-10
 34.29834    -29.8 8.539e+03 1.814e-10
 34.32334    -29.4 8.383e+03 1.410e-10
 34.35646    -29.2 8.372e+03 1.310e-10
 34.37649    -31.8 8.435e+03 1.314e-10
 34.40344    -32.7 8.977e+03 1.836e-10
 34.44348    -33.1 9.585e+03 3.216e-10
 34.47677    -33.0 1.009e+04 4.950e-10
 34.49679    -31.4 1.022e+04 5.103e-10
 34.52358    -31.5 1.067e+04 6.543e-10
 34.56363    -32.4 1.078e+04 6.515e-10
 34.60368    -34.6 1.078e+04 5.417e-10
 34.64373    -38.5 1.094e+04 4.986e-10
 34.67366    -44.4 1.164e+04 5.327e-10
 34.68504    -49.2 1.355e+04 1.158e-09
 34.69505    -49.4 1.377e+04 1.240e-09
 34.71362    -53.0 1.509e+04 2.759e-09
 34.73364    -54.8 1.610e+04 4.818e-09
 34.75366    -56.6 1.664e+04 6.083e-09
 34.77042    -58.7 1.679e+04 6.348e-09
 34.78043    -60.3 1.637e+04 5.948e-09
 34.78426    -62.3 1.564e+04 4.079e-09
 34.79427    -63.1 1.551e+04 3.777e-09
 34.81374    -66.5 1.434e+04 2.260e-09
 34.83376    -70.0 1.312e+04 1.561e-09
 34.85378    -72.2 1.247e+04 1.333e-09
 34.87348    -73.1 1.225e+04 1.273e-09
 34.88349    -73.7 1.208e+04 1.179e-09
 34.89383    -74.0 1.202e+04 1.166e-09
 34.91386    -74.2 1.196e+04 1.159e-09
 34.93388    -74.2 1.187e+04 1.140e-09
 34.95391    -74.0 1.175e+04 1.097e-09
 34.97249    -73.8 1.164e+04 1.055e-09
 34.98127    -73.6 1.131e+04 8.848e-10
 34.98271    -73.8 1.133e+04 8.830e-10
 34.99395    -73.5 1.136e+04 8.911e-10
 35.01398    -73.4 1.149e+04 9.517e-10
 35.03400    -73.3 1.164e+04 1.062e-09
 35.05403    -73.0 1.182e+04 1.217e-09
 35.07193    -72.5 1.205e+04 1.406e-09
 35.08194    -72.6 1.235e+04 1.508e-09
 35.09408    -72.1 1.264e+04 1.761e-09
 35.11410    -71.4 1.285e+04 1.964e-09
 35.13412    -70.7 1.294e+04 2.052e-09
 35.15415    -70.1 1.296e+04 2.066e-09
 35.17115    -69.5 1.283e+04 1.926e-09
 35.18116    -70.3 1.346e+04 2.382e-09
 35.18457    -69.9 1.331e+04 2.186e-09
 35.19458    -69.8 1.376e+04 2.558e-09
 35.21422    -69.4 1.365e+04 2.353e-09
 35.23424    -69.0 1.341e+04 2.042e-09
 35.25427    -68.7 1.301e+04 1.669e-09
 35.27038    -68.5 1.243e+04 1.307e-09
 35.28039    -68.7 1.294e+04 1.726e-09
 35.29432    -68.4 1.228e+04 1.311e-09
 35.31434    -68.1 1.174e+04 1.072e-09
 35.33437    -67.7 1.136e+04 9.309e-10
 35.35439    -66.9 1.115e+04 8.330e-10
 35.36960    -66.1 1.096e+04 7.726e-10
 35.37962    -66.3 1.105e+04 8.191e-10
 35.38664    -65.2 1.091e+04 7.621e-10
 35.39665    -65.4 1.170e+04 1.048e-09
 35.41446    -64.0 1.150e+04 9.773e-10
 35.43449    -62.4 1.128e+04 8.968e-10
 35.45451    -60.8 1.103e+04 8.024e-10
 35.46883    -58.9 1.078e+04 7.049e-10
 35.48895    -58.2 1.038e+04 4.999e-10
 35.52479    -55.5 1.015e+04 4.289e-10
 35.56484    -52.3 9.750e+03 3.578e-10
 35.58890    -48.8 9.509e+03 3.190e-10
 35.60892    -48.3 9.590e+03 3.650e-10
 35.64494    -44.6 9.640e+03 3.398e-10
 35.66738    -42.1 9.760e+03 3.713e-10
 35.67729    -41.7 9.808e+03 3.732e-10
 35.69480    -40.6 9.810e+03 3.848e-10
 35.71483    -38.5 1.009e+04 4.449e-10
 35.73485    -36.9 1.025e+04 4.967e-10
 35.75487    -34.8 1.067e+04 6.095e-10
 35.76651    -33.1 1.109e+04 7.321e-10
 35.77652    -32.8 1.116e+04 7.408e-10
 35.79077    -30.8 1.172e+04 9.333e-10
 35.80078    -29.8 1.176e+04 9.368e-10
 35.81495    -28.4 1.211e+04 1.076e-09
 35.83497    -25.8 1.273e+04 1.334e-09
 35.85499    -25.0 1.275e+04 1.387e-09
 35.86573    -22.4 1.298e+04 1.550e-09
 35.87574    -22.0 1.314e+04 1.631e-09
 35.89504    -19.5 1.334e+04 1.742e-09
 35.91507    -17.1 1.352e+04 1.853e-09
 35.93509    -15.0 1.412e+04 2.079e-09
 35.95495    -18.2 2.442e+04 2.292e-09
 35.96496    -19.1 2.217e+04 3.164e-09
 35.97008    -25.3 3.227e+04 4.166e-09
 35.98005    -40.5 5.575e+04 6.351e-09
 35.99006    -47.7 5.109e+04 3.227e-08
 35.99775    -51.8 3.293e+04 2.691e-07
 36.00275    -47.8 4.004e+04 1.254e-07
 36.00947    -50.8 2.564e+04 7.171e-07
 36.01447    -58.5 2.151e+04 9.654e-07
 36.02010    -59.0 2.090e+04 1.063e-06
 36.03011    -62.0 2.172e+04 6.883e-07
 36.04012    -74.3 2.953e+04 1.177e-07
 36.05013   -107.2 4.047e+04 4.601e-09
 36.05908   -141.6 2.173e+04 5.409e-10
 36.06409   -143.3 1.862e+04 5.248e-10
 36.07521   -149.5 1.139e+04 4.945e-10
 36.09528   -150.8 1.111e+04 4.908e-10
 36.11531   -154.2 1.170e+04 5.181e-10
 36.13533   -159.7 1.621e+04 1.043e-09
 36.15340   -163.4 1.868e+04 3.663e-09
 36.16341   -162.6 1.883e+04 3.363e-09
 36.17538   -164.7 2.008e+04 8.594e-09
 36.19491   -166.2 2.083e+04 1.472e-08
 36.20492   -164.9 2.131e+04 1.462e-08
 36.21543   -167.3 2.174e+04 1.922e-08
 36.23545   -171.0 2.174e+04 2.007e-08
 36.25262   -175.2 2.092e+04 1.725e-08
 36.26264   -175.3 2.048e+04 1.477e-08
 36.27550   -180.3 1.938e+04 1.076e-08
 36.29553   -186.1 1.844e+04 7.841e-09
 36.31555   -192.0 1.806e+04 6.544e-09
 36.33558   -197.5 1.796e+04 6.109e-09
 36.35185   -202.2 1.787e+04 5.848e-09
 36.36186   -203.6 2.047e+04 1.137e-08
 36.37562   -207.3 1.993e+04 1.107e-08
 36.39565   -209.8 1.874e+04 8.978e-09
 36.40699   -211.5 1.738e+04 6.410e-09
 36.41700   -211.6 1.706e+04 5.732e-09
 36.43570   -213.2 1.574e+04 3.848e-09
 36.45107   -214.5 1.461e+04 2.581e-09
 36.46109   -214.0 1.522e+04 3.399e-09
 36.47574   -215.7 1.437e+04 2.356e-09
 36.49577   -217.5 1.379e+04 1.765e-09
 36.51579   -219.5 1.367e+04 1.612e-09
 36.53582   -221.7 1.367e+04 1.591e-09
 36.55030   -224.0 1.404e+04 1.728e-09
 36.56031   -225.0 1.459e+04 2.224e-09
 36.57587   -227.0 1.532e+04 3.022e-09
 36.59589   -228.5 1.593e+04 4.092e-09
 36.60906   -229.8 1.636e+04 5.144e-09
 36.61907   -231.0 1.616e+04 4.836e-09
 36.63594   -232.5 1.656e+04 5.430e-09
 36.64953   -234.1 1.693e+04 5.912e-09
 36.65954   -235.3 1.718e+04 6.477e-09
 36.67599   -237.3 1.764e+04 6.961e-09
 36.69601   -239.2 1.795e+04 7.580e-09
 36.71604   -240.7 1.810e+04 8.357e-09
 36.73606   -241.3 1.817e+04 9.322e-09
 36.74875   -241.6 1.825e+04 1.046e-08
 36.75876   -241.9 1.800e+04 8.572e-09
 36.77611   -242.0 1.799e+04 8.669e-09
 36.79613   -241.8 1.777e+04 8.308e-09
 36.81113   -241.3 1.742e+04 7.349e-09
 36.82114   -242.0 1.722e+04 7.163e-09
 36.83618   -241.2 1.662e+04 5.590e-09
 36.84798   -240.5 1.595e+04 4.183e-09
 36.85799   -241.5 1.479e+04 2.513e-09
 36.87623   -241.0 1.400e+04 1.929e-09
 36.89625   -240.3 1.324e+04 1.512e-09
 36.91628   -239.5 1.257e+04 1.220e-09
 36.93630   -238.5 1.202e+04 1.015e-09
 36.94720   -237.3 1.158e+04 8.635e-10
 36.95722   -237.3 1.122e+04 7.918e-10
 36.97635   -236.0 1.101e+04 7.102e-10
 36.99637   -234.6 1.081e+04 6.346e-10
 37.01319   -233.3 1.062e+04 5.654e-10
 37.02321   -234.4 1.050e+04 5.029e-10
 37.03642   -233.2 1.042e+04 4.715e-10
 37.05644   -231.9 1.036e+04 4.620e-10
 37.07647   -231.1 1.037e+04 4.567e-10
 37.09649   -230.6 1.044e+04 4.562e-10
 37.11652   -230.6 1.093e+04 4.756e-10
 37.13564   -230.6 1.142e+04 5.784e-10
 37.14565   -229.4 1.105e+04 5.096e-10
 37.15657   -229.3 1.145e+04 6.356e-10
 37.17659   -229.0 1.175e+04 8.133e-10
 37.19662   -228.5 1.194e+04 1.001e-09
 37.21526   -228.0 1.204e+04 1.137e-09
 37.22527   -229.4 1.188e+04 1.090e-09
 37.23487   -228.9 1.176e+04 1.074e-09
 37.24488   -228.2 1.162e+04 9.696e-10
 37.25669   -227.7 1.137e+04 8.970e-10
 37.27671   -227.5 1.099e+04 7.596e-10
 37.29674   -227.4 1.054e+04 6.130e-10
 37.31676   -227.4 1.007e+04 4.916e-10
 37.33409   -227.5 9.685e+03 4.115e-10
 37.34411   -226.8 9.727e+03 4.169e-10
 37.35681   -227.0 9.455e+03 3.676e-10
 37.37683   -227.2 9.284e+03 3.414e-10
 37.39686   -227.4 9.199e+03 3.305e-10
 37.41688   -227.4 9.173e+03 3.278e-10
 37.42734   -227.5 9.174e+03 3.277e-10
 37.43377   -227.5 9.197e+03 3.072e-10
 37.44333   -227.1 9.165e+03 3.092e-10
 37.45693   -227.4 9.182e+03 3.109e-10
 37.47695   -229.9 9.574e+03 3.338e-10
 37.49698   -234.3 1.206e+04 5.868e-10
 37.51700   -238.0 1.460e+04 1.599e-09
 37.53255   -240.3 1.600e+04 3.626e-09
 37.54256   -240.1 1.623e+04 4.318e-09
 37.55705   -241.3 1.686e+04 6.898e-09
 37.57708   -242.4 1.705e+04 8.214e-09
 37.59710   -243.4 1.701e+04 8.409e-09
 37.61712   -243.9 1.632e+04 7.120e-09
 37.62941   -244.0 1.530e+04 4.700e-09
 37.63405   -243.1 1.570e+04 5.740e-09
 37.64178   -242.4 1.563e+04 5.607e-09
 37.65717   -242.6 1.457e+04 3.532e-09
 37.67720   -243.3 1.329e+04 1.950e-09
 37.69722   -244.4 1.187e+04 1.048e-09
 37.71725   -245.4 1.062e+04 6.133e-10
 37.73100   -245.7 9.953e+03 4.243e-10
 37.74101   -245.1 1.000e+04 4.401e-10
 37.75729   -245.0 9.841e+03 3.636e-10
 37.77732   -244.7 9.825e+03 3.382e-10
 37.80745   -244.5 9.811e+03 3.252e-10
 37.83042   -243.8 9.805e+03 3.217e-10
 37.85044   -242.4 9.806e+03 3.029e-10
 37.88765   -241.5 9.803e+03 3.008e-10
 37.92769   -240.9 9.831e+03 3.037e-10
 37.96774   -240.5 1.013e+04 3.652e-10
 38.00779   -240.5 1.091e+04 5.541e-10
 38.02887   -241.4 1.168e+04 8.685e-10
 38.03480   -239.9 1.167e+04 8.566e-10
 38.05377   -239.2 1.141e+04 7.358e-10
 38.08789   -240.7 1.178e+04 9.600e-10
 38.12794   -242.7 1.186e+04 1.024e-09
 38.15788   -244.7 1.177e+04 1.041e-09
 38.17780   -245.7 1.140e+04 9.013e-10
 38.19783   -246.4 1.106e+04 7.592e-10
 38.21711   -247.0 1.073e+04 6.341e-10
 38.22722   -245.6 1.122e+04 8.264e-10
 38.24808   -246.2 1.072e+04 6.030e-10
 38.28813   -246.5 1.012e+04 4.116e-10
 38.32818   -246.7 9.666e+03 2.938e-10
 38.36823   -246.5 9.350e+03 2.229e-10
 38.40575   -245.5 9.078e+03 1.725e-10
 38.42577   -244.8 9.210e+03 1.890e-10
 38.43788   -243.1 8.879e+03 1.437e-10
 38.45790   -243.3 9.336e+03 1.979e-10
 38.48837   -241.2 9.026e+03 1.544e-10
 38.52842   -239.0 8.791e+03 1.247e-10
 38.56847   -236.8 8.691e+03 1.086e-10
 38.60420   -234.5 8.681e+03 1.019e-10
 38.62422   -233.8 8.775e+03 1.150e-10
 38.64857   -231.6 8.764e+03 1.124e-10
 38.68861   -229.3 8.770e+03 1.117e-10
 38.72866   -227.0 8.871e+03 1.163e-10
 38.76871   -224.7 8.955e+03 1.276e-10
 38.80265   -222.4 9.030e+03 1.404e-10
 38.82268   -221.7 9.124e+03 1.648e-10
 38.84202   -219.2 9.152e+03 1.703e-10
 38.86204   -219.3 9.162e+03 1.749e-10
 38.88886   -216.8 9.103e+03 1.655e-10
 38.92890   -214.1 9.060e+03 1.560e-10
 38.96895   -211.3 9.035e+03 1.468e-10
 39.00110   -208.5 9.049e+03 1.419e-10
 39.02113   -207.7 9.088e+03 1.550e-10
 39.04905   -204.8 9.108e+03 1.494e-10
 39.08910   -202.0 9.130e+03 1.482e-10
 39.12915   -199.3 9.224e+03 1.511e-10
 39.16919   -196.7 9.303e+03 1.573e-10
 39.19955   -194.3 9.358e+03 1.624e-10
 39.21958   -193.4 9.348e+03 1.614e-10
 39.24615   -191.0 9.358e+03 1.599e-10
 39.26618   -191.3 9.211e+03 1.374e-10
 39.28934   -189.0 9.156e+03 1.304e-10
 39.32939   -186.5 9.083e+03 1.236e-10
 39.36944   -184.1 8.987e+03 1.168e-10
 39.39801   -181.5 8.887e+03 1.095e-10
 39.41803   -180.6 8.850e+03 1.099e-10
 39.44953   -178.1 8.721e+03 1.010e-10
 39.48958   -175.5 8.621e+03 9.211e-11
 39.52963   -172.8 8.547e+03 8.453e-11
 39.56968   -170.1 8.520e+03 7.939e-11
 39.59646   -167.3 8.531e+03 7.760e-11
 39.61648   -166.4 8.483e+03 7.824e-11
 39.64978   -163.5 8.474e+03 7.774e-11
 39.67031   -160.7 8.495e+03 7.786e-11
 39.69034   -160.7 8.479e+03 7.361e-11
 39.72987   -157.9 8.566e+03 7.595e-11
 39.76992   -155.0 8.644e+03 8.388e-11
 39.79491   -152.1 8.725e+03 9.576e-11
 39.81493   -151.3 8.722e+03 9.617e-11
 39.85002   -148.5 8.847e+03 1.113e-10
 39.89007   -145.5 9.033e+03 1.312e-10
 39.93011   -142.6 9.251e+03 1.602e-10
 39.97016   -139.6 9.475e+03 2.044e-10
 39.99336   -136.6 9.770e+03 2.746e-10
 40.01338   -136.2 9.967e+03 3.348e-10
 40.05026   -133.1 1.045e+04 4.716e-10
 40.07445   -129.8 1.106e+04 6.602e-10
 40.09448   -130.5 1.068e+04 5.645e-10
 40.13036   -127.2 1.119e+04 7.245e-10
 40.17040   -123.8 1.178e+04 9.076e-10
 40.19181   -120.4 1.244e+04 1.104e-09
 40.21184   -120.9 1.196e+04 8.190e-10
 40.24039   -118.1 1.228e+04 1.103e-09
 40.26032   -116.8 1.285e+04 1.405e-09
 40.27632   -115.3 1.447e+04 2.156e-09
 40.28634   -116.2 1.252e+04 9.370e-10
 40.29084   -115.8 1.384e+04 1.249e-09
 40.30085   -118.3 1.379e+04 9.437e-10
 40.32039   -119.4 1.808e+04 1.445e-09
 40.34042   -120.1 2.169e+04 3.136e-09
 40.36044   -120.7 2.255e+04 5.892e-09
 40.38006   -123.2 2.110e+04 8.208e-09
 40.39007   -127.4 1.929e+04 9.088e-09
 40.39543   -129.1 1.872e+04 7.478e-09
 40.40540   -130.6 1.915e+04 8.012e-09
 40.41541   -133.3 1.941e+04 8.115e-09
 40.42542   -135.3 1.953e+04 8.116e-09
 40.43458   -138.6 1.952e+04 7.483e-09
 40.43958   -139.2 1.939e+04 7.633e-09
 40.44544   -141.9 1.895e+04 6.561e-09
 40.45546   -144.7 1.813e+04 5.508e-09
 40.46547   -147.2 1.718e+04 4.634e-09
 40.47548   -149.3 1.631e+04 3.999e-09
 40.48330   -150.8 1.559e+04 3.546e-09
 40.48700   -150.0 1.515e+04 2.989e-09
 40.48924   -148.2 1.512e+04 3.066e-09
 40.50061   -150.8 1.439e+04 2.731e-09
 40.52063   -152.4 1.379e+04 2.500e-09
 40.54066   -153.3 1.352e+04 2.361e-09
 40.56068   -153.3 1.352e+04 2.341e-09
 40.57851   -153.0 1.351e+04 2.365e-09
 40.58852   -151.9 1.348e+04 2.466e-09
 40.60073   -151.7 1.364e+04 2.517e-09
 40.62075   -151.3 1.371e+04 2.521e-09
 40.64078   -150.8 1.373e+04 2.335e-09
 40.66080   -150.2 1.356e+04 2.054e-09
 40.67773   -149.7 1.322e+04 1.710e-09
 40.68738   -149.3 1.367e+04 2.228e-09
 40.69047   -148.4 1.446e+04 3.472e-09
 40.70085   -148.0 1.435e+04 3.152e-09
 40.72087   -147.4 1.410e+04 2.750e-09
 40.74090   -146.7 1.377e+04 2.324e-09
 40.76092   -145.9 1.342e+04 1.932e-09
 40.77696   -145.0 1.311e+04 1.631e-09
 40.78697   -144.8 1.343e+04 1.976e-09
 40.80097   -143.9 1.331e+04 1.725e-09
 40.82100   -143.0 1.328e+04 1.552e-09
 40.84102   -142.0 1.331e+04 1.457e-09
 40.86104   -141.0 1.335e+04 1.428e-09
 40.87618   -140.0 1.350e+04 1.444e-09
 40.88620   -140.5 1.376e+04 1.671e-09
 40.89254   -139.5 1.383e+04 1.713e-09
 40.90255   -140.1 1.348e+04 1.807e-09
 40.92112   -138.9 1.342e+04 1.790e-09
 40.94114   -137.8 1.335e+04 1.802e-09
 40.96117   -136.5 1.330e+04 1.832e-09
 40.97541   -135.2 1.328e+04 1.862e-09
 40.98542   -135.4 1.317e+04 1.971e-09
 41.00121   -134.2 1.319e+04 1.990e-09
 41.02124   -132.9 1.320e+04 2.025e-09
 41.04126   -131.6 1.326e+04 2.096e-09
 41.06129   -130.5 1.334e+04 2.213e-09
 41.07464   -129.5 1.343e+04 2.360e-09
 41.08465   -129.8 1.355e+04 2.502e-09
 41.09461   -128.5 1.376e+04 2.769e-09
 41.10462   -129.0 1.321e+04 1.944e-09
 41.12136   -127.8 1.356e+04 2.238e-09
 41.14138   -126.6 1.387e+04 2.501e-09
 41.16141   -125.3 1.407e+04 2.670e-09
 41.17386   -124.5 1.427e+04 2.763e-09
 41.18387   -125.1 1.427e+04 2.639e-09
 41.20146   -125.1 1.460e+04 2.804e-09
 41.22148   -129.2 2.059e+04 2.885e-09
 41.23645   -137.8 3.506e+04 3.722e-09
 41.24641   -142.6 3.333e+04 1.204e-08
 41.25642   -146.0 3.035e+04 3.947e-08
 41.26644   -149.4 2.743e+04 1.105e-07
 41.27299   -152.4 2.533e+04 2.080e-07
 41.27799   -152.1 2.595e+04 1.672e-07
 41.28646   -154.5 2.449e+04 2.237e-07
 41.29647   -156.2 2.386e+04 2.357e-07
 41.30159   -156.5 2.311e+04 1.878e-07
 41.30659   -154.3 2.661e+04 1.129e-07
 41.31650   -155.1 2.402e+04 1.231e-07
 41.32260   -155.3 2.341e+04 9.423e-08
 41.32761   -154.6 2.331e+04 9.762e-08
 41.33652   -154.5 2.217e+04 6.889e-08
 41.34653   -154.2 2.201e+04 4.139e-08
 41.35655   -154.0 2.286e+04 2.197e-08
 41.36656   -155.0 2.515e+04 9.768e-09
 41.37221   -160.5 2.743e+04 3.433e-09
 41.37722   -161.3 2.912e+04 3.151e-09
 41.38658   -169.4 2.744e+04 1.074e-09
 41.39659   -176.8 1.765e+04 8.694e-10
 41.40262   -181.0 1.386e+04 9.350e-10
 41.40763   -176.3 3.053e+04 9.375e-10
 41.41662   -181.8 1.878e+04 1.110e-09
 41.42183   -185.0 1.442e+04 1.343e-09
 41.42683   -185.6 1.573e+04 1.354e-09
 41.44170   -186.9 1.413e+04 1.988e-09
 41.46153   -188.7 1.522e+04 3.106e-09
 41.47154   -191.8 1.646e+04 4.771e-09
 41.48179   -192.4 1.679e+04 6.151e-09
 41.49875   -192.6 1.673e+04 6.545e-09
 41.50876   -193.9 1.768e+04 8.404e-09
 41.52184   -193.5 1.747e+04 8.339e-09
 41.54187   -192.8 1.685e+04 7.229e-09
 41.56075   -192.1 1.631e+04 6.115e-09
 41.57076   -193.1 1.619e+04 5.790e-09
 41.58192   -192.7 1.587e+04 5.105e-09
 41.60194   -192.4 1.579e+04 4.795e-09
 41.62196   -192.5 1.581e+04 4.746e-09
 41.64199   -192.6 1.624e+04 5.324e-09
 41.65998   -192.8 1.679e+04 6.657e-09
 41.66999   -194.0 1.696e+04 6.650e-09
 41.68204   -193.7 1.742e+04 8.182e-09
 41.70081   -193.4 1.757e+04 8.964e-09
 41.71083   -192.7 1.733e+04 8.113e-09
 41.72208   -192.3 1.748e+04 8.690e-09
 41.74211   -192.0 1.741e+04 8.665e-09
 41.75920   -191.5 1.673e+04 7.195e-09
 41.76921   -192.1 1.648e+04 6.759e-09
 41.78216   -191.5 1.553e+04 4.806e-09
 41.80218   -191.3 1.433e+04 3.148e-09
 41.82221   -191.2 1.308e+04 2.064e-09
 41.84223   -191.4 1.199e+04 1.426e-09
 41.85843   -191.4 1.121e+04 1.056e-09
 41.86844   -191.7 1.149e+04 1.153e-09
 41.88228   -191.2 1.101e+04 9.341e-10
 41.90230   -190.4 1.065e+04 7.886e-10
 41.91290   -189.6 1.039e+04 6.889e-10
 41.92291   -189.7 1.059e+04 7.507e-10
 41.94235   -188.9 1.035e+04 6.702e-10
 41.95765   -188.1 1.017e+04 6.111e-10
 41.96767   -188.4 1.020e+04 6.711e-10
 41.98240   -187.6 1.004e+04 6.113e-10
 42.00242   -186.8 9.905e+03 5.661e-10
 42.02245   -186.1 9.797e+03 5.293e-10
 42.04247   -185.3 9.702e+03 4.950e-10
 42.05688   -184.4 9.621e+03 4.617e-10
 42.06689   -184.5 9.545e+03 4.421e-10
 42.08252   -183.8 9.460e+03 4.043e-10
 42.10254   -183.1 9.425e+03 3.841e-10
 42.11506   -182.3 9.496e+03 3.896e-10
 42.13518   -182.3 9.220e+03 3.092e-10
 42.15630   -181.0 9.127e+03 2.733e-10
 42.17633   -181.8 9.166e+03 2.784e-10
 42.21287   -181.1 9.172e+03 2.744e-10
 42.25292   -181.2 9.326e+03 2.903e-10
 42.29297   -181.9 1.016e+04 4.554e-10
 42.33302   -182.7 1.129e+04 8.849e-10
 42.35475   -183.4 1.226e+04 1.604e-09
 42.37478   -183.6 1.187e+04 1.467e-09
 42.41311   -184.2 1.233e+04 1.861e-09
 42.44305   -184.4 1.251e+04 2.068e-09
 42.45378   -184.6 1.245e+04 2.011e-09
 42.46379   -184.9 1.201e+04 1.633e-09
 42.48300   -185.0 1.176e+04 1.434e-09
 42.50303   -185.1 1.142e+04 1.186e-09
 42.51910   -185.2 1.097e+04 9.223e-10
 42.53914   -185.3 1.050e+04 6.613e-10
 42.57323   -185.1 9.125e+03 2.740e-10
 42.61336   -184.0 8.784e+03 2.009e-10
 42.65341   -182.6 8.746e+03 1.723e-10
 42.69345   -181.2 8.759e+03 1.673e-10
 42.73163   -179.8 8.814e+03 1.680e-10
 42.75166   -180.1 8.950e+03 1.948e-10
 42.77355   -179.0 9.093e+03 2.197e-10
 42.81360   -177.8 9.206e+03 2.447e-10
 42.85365   -176.7 9.285e+03 2.650e-10
 42.89370   -175.6 9.340e+03 2.797e-10
 42.92343   -174.4 9.385e+03 2.901e-10
 42.93979   -174.3 9.305e+03 2.797e-10
 42.95011   -174.4 9.142e+03 2.483e-10
 42.97379   -173.2 9.118e+03 2.269e-10
 43.01384   -172.0 9.132e+03 2.140e-10
 43.05389   -170.8 9.150e+03 2.097e-10
 43.09394   -169.5 9.154e+03 2.091e-10
 43.12853   -168.2 9.173e+03 2.091e-10
 43.14856   -168.6 9.106e+03 1.847e-10
 43.17403   -167.3 9.164e+03 1.871e-10
 43.21408   -166.0 9.235e+03 1.909e-10
 43.25413   -164.7 9.350e+03 1.997e-10
 43.29418   -163.4 9.463e+03 2.163e-10
 43.32699   -162.2 9.582e+03 2.356e-10
 43.34035   -162.2 9.115e+03 1.473e-10
 43.34759   -161.9 9.318e+03 1.811e-10
 43.37428   -160.6 9.360e+03 1.813e-10
 43.41432   -159.5 9.432e+03 1.834e-10
 43.45437   -158.5 9.565e+03 1.930e-10
 43.49442   -158.0 9.799e+03 2.286e-10
 43.52544   -157.6 1.008e+04 3.032e-10
 43.54546   -157.1 9.814e+03 1.623e-10
 43.57452   -157.2 1.039e+04 3.219e-10
 43.61457   -157.1 1.087e+04 5.692e-10
 43.65462   -157.2 1.116e+04 7.678e-10
 43.69466   -157.5 1.121e+04 8.161e-10
 43.72389   -157.6 1.105e+04 7.796e-10
 43.74091   -157.6 1.180e+04 1.229e-09
 43.75163   -157.3 1.211e+04 1.577e-09
 43.77466   -156.7 1.162e+04 1.189e-09
 43.81481   -155.2 1.010e+04 5.068e-10
 43.85486   -154.1 9.470e+03 2.941e-10
 43.89491   -152.9 9.294e+03 2.413e-10
 43.92234   -151.6 9.252e+03 2.291e-10
 43.94236   -152.5 9.518e+03 2.762e-10
 43.97500   -151.3 9.574e+03 2.897e-10
 44.01505   -150.1 9.657e+03 3.315e-10
 44.05510   -149.0 9.660e+03 3.598e-10
 44.09515   -147.9 9.645e+03 3.648e-10
 44.12079   -146.7 9.465e+03 3.563e-10
 44.14082   -147.3 9.556e+03 4.427e-10
 44.15587   -146.2 9.391e+03 4.003e-10
 44.17589   -145.7 9.809e+03 5.203e-10
 44.21529   -144.7 9.752e+03 5.070e-10
 44.25534   -143.8 9.745e+03 5.065e-10
 44.29539   -142.7 9.798e+03 5.301e-10
 44.31924   -141.7 9.910e+03 5.742e-10
 44.33927   -141.9 1.002e+04 6.055e-10
 44.37549   -140.5 1.006e+04 6.196e-10
 44.41553   -138.9 1.008e+04 6.239e-10
 44.45558   -136.9 1.011e+04 6.276e-10
 44.49563   -134.9 1.018e+04 6.353e-10
 44.51769   -133.1 1.039e+04 6.796e-10
 44.53772   -133.5 1.009e+04 5.756e-10
 44.56000   -131.9 1.034e+04 6.686e-10
 44.58003   -133.9 1.082e+04 8.821e-10
 44.61578   -132.5 1.156e+04 1.177e-09
 44.64572   -130.9 1.196e+04 1.370e-09
 44.66564   -130.6 1.235e+04 1.534e-09
 44.68567   -130.5 1.272e+04 1.703e-09
 44.70569   -130.5 1.311e+04 1.875e-09
 44.71595   -130.7 1.337e+04 2.008e-09
 44.73607   -131.2 1.219e+04 1.208e-09
 44.76197   -131.4 1.291e+04 1.522e-09
 44.77189   -132.0 1.207e+04 1.227e-09
 44.78579   -132.2 1.214e+04 1.266e-09
 44.80516   -132.3 1.214e+04 1.298e-09
 44.81518   -132.0 1.215e+04 1.245e-09
 44.82584   -131.9 1.215e+04 1.251e-09
 44.84586   -131.8 1.212e+04 1.249e-09
 44.86588   -131.4 1.206e+04 1.217e-09
 44.88591   -130.7 1.202e+04 1.170e-09
 44.90439   -130.1 1.200e+04 1.121e-09
 44.91450   -130.6 1.220e+04 1.305e-09
 44.93616   -129.5 1.236e+04 1.505e-09
 44.96414   -128.2 1.250e+04 1.651e-09
 44.98416   -128.2 1.244e+04 1.292e-09
 45.00371   -127.1 1.237e+04 1.180e-09
 45.01363   -127.5 1.277e+04 1.713e-09
 45.02608   -127.0 1.288e+04 1.818e-09
 45.04610   -126.6 1.301e+04 1.979e-09
 45.06613   -126.2 1.312e+04 2.195e-09
 45.08615   -125.9 1.324e+04 2.443e-09
 45.10284   -125.8 1.352e+04 2.753e-09
 45.11285   -126.8 1.358e+04 4.599e-09
 45.12620   -127.3 1.492e+04 5.969e-09
 45.14622   -129.9 2.043e+04 9.080e-09
 45.15741   -132.9 2.484e+04 2.389e-08
 45.16237   -131.6 2.479e+04 1.415e-08
 45.17092   -134.7 2.768e+04 1.816e-08
 45.17593   -135.0 2.691e+04 3.999e-08
 45.18117   -138.7 2.664e+04 5.834e-08
 45.19118   -142.5 2.628e+04 6.435e-08
 45.20119   -145.8 2.611e+04 5.637e-08
 45.20697   -149.0 2.712e+04 2.693e-08
 45.21198   -151.4 3.215e+04 5.244e-09
 45.22627   -157.9 2.695e+04 3.123e-09
 45.24634   -164.6 1.769e+04 1.910e-09
 45.26637   -165.5 1.542e+04 1.736e-09
 45.28639   -165.4 1.452e+04 1.642e-09
 45.30129   -164.4 1.422e+04 1.613e-09
 45.31130   -164.1 1.211e+04 8.188e-10
 45.32644   -163.3 1.214e+04 8.236e-10
 45.34646   -162.6 1.213e+04 7.994e-10
 45.36649   -161.9 1.203e+04 7.399e-10
 45.37809   -161.0 1.204e+04 6.959e-10
 45.38811   -160.2 1.376e+04 1.067e-09
 45.40052   -159.1 1.377e+04 1.044e-09
 45.41053   -160.0 1.125e+04 5.314e-10
 45.42656   -159.1 1.128e+04 5.311e-10
 45.44659   -158.7 1.160e+04 5.558e-10
 45.46661   -158.9 1.287e+04 6.803e-10
 45.48663   -160.2 1.483e+04 1.093e-09
 45.49974   -161.7 1.617e+04 2.025e-09
 45.50976   -162.9 1.404e+04 1.836e-09
 45.52668   -163.7 1.488e+04 3.173e-09
 45.54671   -164.3 1.560e+04 4.817e-09
 45.56673   -165.0 1.615e+04 6.135e-09
 45.58016   -166.2 1.641e+04 6.574e-09
 45.59017   -164.2 1.791e+04 8.845e-09
 45.59897   -165.9 1.812e+04 9.475e-09
 45.60898   -167.3 1.685e+04 7.596e-09
 45.62680   -169.2 1.689e+04 7.580e-09
 45.64683   -171.2 1.680e+04 6.809e-09
 45.66685   -173.1 1.655e+04 5.797e-09
 45.68688   -174.7 1.636e+04 5.078e-09
 45.69820   -175.8 1.626e+04 4.668e-09
 45.70821   -175.1 1.524e+04 3.257e-09
 45.72692   -175.7 1.499e+04 2.810e-09
 45.74695   -175.9 1.490e+04 2.540e-09
 45.76697   -175.8 1.484e+04 2.363e-09
 45.78223   -175.6 1.467e+04 2.201e-09
 45.79224   -175.3 1.611e+04 4.585e-09
 45.79742   -175.0 1.575e+04 4.185e-09
 45.80743   -175.1 1.525e+04 2.374e-09
 45.82705   -174.7 1.512e+04 2.325e-09
 45.84707   -174.3 1.493e+04 2.299e-09
 45.86709   -173.9 1.468e+04 2.293e-09
 45.88663   -173.5 1.434e+04 2.302e-09
 45.89665   -173.8 1.334e+04 1.438e-09
 45.90714   -173.3 1.324e+04 1.568e-09
 45.92717   -172.7 1.300e+04 1.683e-09
 45.94719   -172.0 1.275e+04 1.772e-09
 45.96721   -171.2 1.256e+04 1.841e-09
 45.98430   -170.4 1.245e+04 1.885e-09
 45.99293   -170.0 1.250e+04 2.300e-09
 45.99587   -170.1 1.214e+04 1.701e-09
 46.00726   -169.3 1.200e+04 1.650e-09
 46.02729   -168.6 1.192e+04 1.590e-09
 46.04731   -167.9 1.187e+04 1.526e-09
 46.06734   -167.2 1.185e+04 1.460e-09
 46.08509   -166.5 1.182e+04 1.393e-09
 46.09510   -166.6 1.154e+04 1.106e-09
 46.10738   -165.9 1.159e+04 1.085e-09
 46.12741   -165.3 1.161e+04 1.080e-09
 46.14743   -164.6 1.169e+04 1.081e-09
 46.16746   -164.1 1.191e+04 1.108e-09
 46.18431   -163.7 1.226e+04 1.176e-09
 46.19321   -164.1 1.240e+04 1.186e-09
 46.19638   -163.3 1.158e+04 9.553e-10
 46.20751   -163.1 1.197e+04 1.062e-09
 46.22753   -163.0 1.246e+04 1.248e-09
 46.24755   -163.0 1.300e+04 1.554e-09
 46.26758   -163.0 1.348e+04 2.010e-09
 46.28354   -162.8 1.386e+04 2.604e-09
 46.29355   -162.9 1.406e+04 2.822e-09
 46.30763   -162.3 1.437e+04 3.344e-09
 46.32765   -161.6 1.455e+04 3.663e-09
 46.34767   -160.8 1.459e+04 3.736e-09
 46.36770   -159.8 1.455e+04 3.699e-09
 46.38276   -158.7 1.444e+04 3.374e-09
 46.39277   -159.3 1.383e+04 2.218e-09
 46.39845   -158.5 1.345e+04 1.780e-09
 46.40846   -158.1 1.357e+04 2.277e-09
 46.42777   -157.3 1.332e+04 1.849e-09
 46.44780   -156.5 1.298e+04 1.480e-09
 46.46782   -155.8 1.256e+04 1.197e-09
 46.48199   -155.0 1.215e+04 9.911e-10
 46.49200   -155.9 1.155e+04 7.063e-10
 46.50787   -154.9 1.122e+04 6.090e-10
 46.52789   -153.8 1.095e+04 5.406e-10
 46.54792   -152.8 1.073e+04 4.882e-10
 46.56794   -151.8 1.052e+04 4.455e-10
 46.58121   -150.8 1.034e+04 4.114e-10
 46.59123   -151.3 9.926e+03 3.359e-10
 46.60052   -150.3 9.826e+03 3.235e-10
 46.61053   -150.1 1.013e+04 4.045e-10
 46.62801   -149.2 1.010e+04 3.974e-10
 46.64804   -148.4 1.010e+04 3.965e-10
 46.66806   -147.8 1.015e+04 3.989e-10
 46.68044   -147.4 1.031e+04 4.281e-10
 46.69045   -148.1 1.022e+04 4.172e-10
 46.70811   -147.9 1.044e+04 4.850e-10
 46.72813   -147.7 1.070e+04 5.894e-10
 46.74816   -147.4 1.100e+04 7.385e-10
 46.76818   -147.2 1.133e+04 9.275e-10
 46.77967   -146.8 1.165e+04 1.143e-09
 46.78968   -147.7 1.179e+04 1.305e-09
 46.80258   -147.3 1.201e+04 1.482e-09
 46.81260   -147.5 1.200e+04 1.485e-09
 46.82826   -147.2 1.210e+04 1.572e-09
 46.84828   -146.9 1.215e+04 1.617e-09
 46.86830   -146.6 1.218e+04 1.636e-09
 46.87889   -146.6 1.225e+04 1.664e-09
 46.88890   -147.7 1.202e+04 1.560e-09
 46.90835   -147.9 1.220e+04 1.603e-09
 46.92838   -148.4 1.258e+04 1.813e-09
 46.94840   -149.0 1.307e+04 2.205e-09
 46.96811   -149.4 1.362e+04 2.771e-09
 46.97812   -150.6 1.364e+04 2.720e-09
 46.98845   -150.9 1.429e+04 3.539e-09
 47.00465   -151.2 1.485e+04 4.401e-09
 47.01466   -150.9 1.418e+04 3.245e-09
 47.02850   -151.4 1.441e+04 3.538e-09
 47.04852   -152.0 1.446e+04 3.603e-09
 47.06733   -152.5 1.440e+04 3.543e-09
 47.07734   -153.4 1.485e+04 3.994e-09
 47.08857   -153.8 1.465e+04 3.679e-09
 47.10859   -154.1 1.420e+04 2.993e-09
 47.12862   -154.6 1.362e+04 2.323e-09
 47.14864   -155.1 1.298e+04 1.776e-09
 47.16656   -155.5 1.230e+04 1.369e-09
 47.17657   -155.6 1.262e+04 1.559e-09
 47.18869   -155.9 1.193e+04 1.207e-09
 47.20672   -156.0 1.141e+04 9.909e-10
 47.21673   -156.8 1.107e+04 6.658e-10
 47.22874   -156.8 1.085e+04 6.286e-10
 47.24876   -156.7 1.075e+04 6.154e-10
 47.26578   -156.8 1.071e+04 6.129e-10
 47.27579   -156.9 1.070e+04 6.259e-10
 47.28881   -157.0 1.069e+04 6.232e-10
 47.30884   -157.2 1.051e+04 6.681e-10
 47.32886   -157.6 1.085e+04 7.853e-10
 47.34888   -159.0 1.169e+04 1.030e-09
 47.36501   -161.1 1.315e+04 1.500e-09
 47.37502   -162.5 1.369e+04 1.745e-09
 47.38893   -165.3 1.531e+04 2.863e-09
 47.40879   -168.2 1.665e+04 4.568e-09
 47.41880   -168.3 1.442e+04 2.598e-09
 47.42898   -171.2 1.550e+04 3.788e-09
 47.44901   -174.0 1.636e+04 5.147e-09
 47.46423   -176.6 1.691e+04 6.307e-09
 47.47425   -176.4 1.714e+04 7.690e-09
 47.48905   -178.6 1.728e+04 8.221e-09
 47.50908   -180.8 1.729e+04 8.296e-09
 47.52910   -182.6 1.705e+04 7.993e-09
 47.54913   -184.1 1.647e+04 6.534e-09
 47.56346   -185.4 1.568e+04 4.780e-09
 47.57347   -184.9 1.589e+04 5.626e-09
 47.58918   -186.0 1.524e+04 4.300e-09
 47.60920   -187.0 1.450e+04 3.098e-09
 47.62087   -187.8 1.375e+04 2.139e-09
 47.63088   -186.4 1.352e+04 2.128e-09
 47.64925   -186.9 1.294e+04 1.458e-09
 47.66269   -187.5 1.235e+04 9.793e-10
 47.67270   -187.0 1.310e+04 1.593e-09
 47.68930   -187.7 1.268e+04 1.113e-09
 47.70932   -188.5 1.235e+04 7.998e-10
 47.72934   -189.4 1.214e+04 6.444e-10
 47.74937   -190.1 1.201e+04 6.023e-10
 47.76191   -190.6 1.197e+04 5.959e-10
 47.77192   -190.7 1.269e+04 8.971e-10
 47.78942   -191.1 1.263e+04 8.882e-10
 47.80944   -191.3 1.251e+04 9.528e-10
 47.82294   -191.4 1.260e+04 1.083e-09
 47.83295   -190.3 1.206e+04 7.294e-10
 47.84949   -190.4 1.213e+04 8.477e-10
 47.86114   -190.4 1.226e+04 9.989e-10
 47.87115   -190.7 1.265e+04 1.096e-09
 47.88954   -190.6 1.269e+04 1.169e-09
 47.90956   -190.5 1.273e+04 1.249e-09
 47.92959   -190.3 1.280e+04 1.307e-09
 47.94961   -190.0 1.283e+04 1.327e-09
 47.96036   -189.6 1.283e+04 1.330e-09
 47.97037   -189.6 1.302e+04 1.427e-09
 47.98966   -189.0 1.292e+04 1.400e-09
 48.00968   -188.4 1.279e+04 1.292e-09
 48.02501   -187.6 1.258e+04 1.140e-09
 48.03502   -186.9 1.250e+04 1.022e-09
 48.04958   -186.2 1.223e+04 8.994e-10
 48.05959   -185.9 1.257e+04 1.133e-09
 48.06976   -185.1 1.227e+04 9.755e-10
 48.08978   -184.2 1.197e+04 8.462e-10
 48.10980   -183.3 1.175e+04 7.633e-10
 48.12983   -182.2 1.164e+04 7.284e-10
 48.14880   -181.2 1.162e+04 7.212e-10
 48.15881   -181.0 1.188e+04 8.393e-10
 48.16988   -180.0 1.188e+04 8.347e-10
 48.18990   -179.1 1.191e+04 8.385e-10
 48.20993   -178.3 1.193e+04 8.661e-10
 48.22707   -177.6 1.191e+04 9.041e-10
 48.23709   -177.3 1.175e+04 7.975e-10
 48.24803   -176.7 1.171e+04 8.436e-10
 48.25804   -176.5 1.234e+04 9.306e-10
 48.27000   -176.0 1.219e+04 9.102e-10
 48.29002   -175.5 1.196e+04 8.996e-10
 48.31005   -175.0 1.175e+04 8.860e-10
 48.33007   -174.4 1.154e+04 8.598e-10
 48.34725   -173.7 1.136e+04 8.077e-10
 48.35726   -173.4 1.163e+04 8.248e-10
 48.37012   -172.6 1.129e+04 7.288e-10
 48.39014   -171.5 1.098e+04 6.281e-10
 48.41017   -170.3 1.071e+04 5.269e-10
 48.42914   -169.0 1.050e+04 4.377e-10
 48.43915   -168.7 1.052e+04 4.178e-10
 48.44648   -167.8 1.039e+04 3.696e-10
 48.45649   -167.4 1.042e+04 3.471e-10
 48.47024   -166.7 1.036e+04 3.187e-10
 48.50037   -165.8 1.025e+04 2.908e-10
 48.54052   -163.4 9.933e+03 2.348e-10
 48.58057   -160.8 9.672e+03 1.941e-10
 48.62062   -158.2 9.564e+03 1.737e-10
 48.64142   -155.7 9.548e+03 1.683e-10
 48.64590   -154.9 9.563e+03 1.675e-10
 48.66515   -154.6 9.671e+03 1.690e-10
 48.70071   -152.4 9.688e+03 1.712e-10
 48.74076   -150.4 9.782e+03 1.966e-10
 48.78081   -148.6 9.901e+03 2.453e-10
 48.82086   -146.7 1.003e+04 3.065e-10
 48.84358   -144.8 1.017e+04 3.690e-10
 48.86360   -145.0 1.025e+04 3.858e-10
 48.90096   -143.1 1.033e+04 4.301e-10
 48.94100   -141.3 1.040e+04 4.638e-10
 48.98105   -139.6 1.051e+04 5.102e-10
 49.02110   -138.2 1.081e+04 6.240e-10
 49.04203   -137.2 1.146e+04 8.985e-10
 49.04646   -137.6 1.101e+04 6.269e-10
 49.06558   -137.1 1.122e+04 7.764e-10
 49.10120   -136.2 1.177e+04 9.885e-10
 49.14125   -135.7 1.221e+04 1.149e-09
 49.17118   -135.8 1.183e+04 9.722e-10
 49.19111   -135.9 1.183e+04 9.919e-10
 49.21114   -135.9 1.188e+04 1.035e-09
 49.23027   -135.7 1.193e+04 1.072e-09
 49.24028   -135.6 1.119e+04 7.804e-10
 49.26129   -135.1 1.119e+04 7.871e-10
 49.30144   -133.7 1.121e+04 8.084e-10
 49.34149   -131.9 1.097e+04 7.334e-10
 49.37143   -129.9 1.052e+04 5.421e-10
 49.39135   -129.1 1.043e+04 4.777e-10
 49.41881   -128.2 1.028e+04 3.989e-10
 49.43893   -127.5 1.016e+04 4.227e-10
 49.44969   -125.4 9.794e+03 3.138e-10
 49.46972   -125.0 9.832e+03 2.804e-10
 49.50168   -123.0 9.610e+03 2.244e-10
 49.54173   -121.1 9.429e+03 1.905e-10
 49.58178   -119.1 9.340e+03 1.810e-10
 49.61736   -117.0 9.315e+03 1.802e-10
 49.63738   -115.8 9.445e+03 1.894e-10
 49.66187   -113.8 9.431e+03 1.935e-10
 49.70192   -111.9 9.487e+03 2.225e-10
 49.74197   -110.1 9.569e+03 2.588e-10
 49.78202   -108.3 9.637e+03 2.918e-10
 49.81581   -106.5 9.732e+03 3.201e-10
 49.83583   -106.6 1.037e+04 5.247e-10
 49.85383   -105.1 1.055e+04 5.907e-10
 49.87385   -105.5 1.106e+04 8.196e-10
 49.90217   -103.7 1.116e+04 9.112e-10
 49.94221   -101.7 1.124e+04 9.656e-10
 49.97215    -99.8 1.120e+04 9.822e-10
 49.99208    -98.7 1.117e+04 9.540e-10
 50.01210    -97.3 1.116e+04 9.323e-10
 50.02408    -96.0 1.120e+04 9.287e-10
 50.03409    -96.0 1.123e+04 9.402e-10
 50.05215    -94.7 1.123e+04 9.289e-10
 50.06571    -93.2 1.124e+04 9.270e-10
 50.07573    -93.7 1.160e+04 1.076e-09
 50.09220    -92.5 1.178e+04 1.094e-09
 50.11222    -91.8 1.205e+04 1.196e-09
 50.12330    -91.6 1.242e+04 1.436e-09
 50.13332    -92.1 1.268e+04 1.449e-09
 50.15227    -92.2 1.317e+04 1.935e-09
 50.17230    -92.0 1.370e+04 2.796e-09
 50.19232    -91.2 1.440e+04 4.080e-09
 50.21235    -90.4 1.535e+04 5.673e-09
 50.22253    -90.1 1.667e+04 7.189e-09
 50.23254    -89.6 1.521e+04 6.370e-09
 50.25239    -89.5 1.569e+04 6.554e-09
 50.26778    -89.7 1.627e+04 6.455e-09
 50.27779    -92.2 1.678e+04 6.034e-09
 50.29244    -93.9 1.757e+04 5.292e-09
 50.31174    -95.7 1.636e+04 4.765e-09
 50.32176    -93.4 1.599e+04 3.646e-09
 50.33249    -95.2 1.567e+04 3.412e-09
 50.35251    -96.5 1.504e+04 3.306e-09
 50.37254    -97.9 1.479e+04 3.280e-09
 50.39256   -100.3 1.483e+04 3.857e-09
 50.41097   -103.9 1.658e+04 5.314e-09
 50.42098   -102.2 1.693e+04 5.396e-09
 50.43261   -105.6 1.832e+04 7.666e-09
 50.45264   -109.4 1.921e+04 1.012e-08
 50.46985   -113.6 1.938e+04 1.113e-08
 50.47986   -113.5 1.958e+04 1.164e-08
 50.49268   -117.8 1.939e+04 1.183e-08
 50.51019   -121.5 1.794e+04 9.465e-09
 50.52021   -120.6 1.880e+04 1.042e-08
 50.53273   -124.5 1.661e+04 6.214e-09
 50.55276   -127.5 1.416e+04 3.397e-09
 50.57278   -129.4 1.219e+04 1.932e-09
 50.59280   -130.5 1.107e+04 1.232e-09
 50.60942   -131.3 1.050e+04 8.945e-10
 50.61943   -131.6 1.053e+04 9.845e-10
 50.63285   -131.9 1.010e+04 7.885e-10
 50.65288   -132.0 9.892e+03 7.002e-10
 50.67192   -132.0 9.788e+03 6.671e-10
 50.68193   -131.4 9.650e+03 6.134e-10
 50.69293   -131.0 9.628e+03 6.077e-10
 50.70865   -130.5 9.634e+03 6.105e-10
 50.71866   -130.6 9.938e+03 6.773e-10
 50.73297   -130.1 9.991e+03 6.997e-10
 50.75300   -129.5 1.003e+04 7.215e-10
 50.77302   -128.9 1.004e+04 7.283e-10
 50.79305   -128.3 1.004e+04 7.279e-10
 50.80787   -127.6 9.999e+03 7.109e-10
 50.81788   -127.9 1.025e+04 8.270e-10
 50.83310   -127.2 1.019e+04 8.177e-10
 50.85312   -126.5 1.018e+04 8.167e-10
 50.87314   -125.8 1.022e+04 8.342e-10
 50.88400   -125.1 1.032e+04 8.737e-10
 50.89401   -124.4 9.977e+03 7.032e-10
 50.90710   -123.7 1.002e+04 7.172e-10
 50.91711   -123.7 1.037e+04 8.384e-10
 50.93322   -123.0 1.044e+04 8.754e-10
 50.95324   -122.3 1.049e+04 9.196e-10
 50.97326   -121.6 1.053e+04 9.612e-10
 50.99329   -120.9 1.054e+04 9.957e-10
 51.00632   -120.2 1.052e+04 1.012e-09
 51.01633   -120.4 1.103e+04 1.253e-09
 51.03334   -119.8 1.098e+04 1.250e-09
 51.05336   -119.1 1.088e+04 1.210e-09
 51.07339   -118.4 1.073e+04 1.139e-09
 51.08607   -117.7 1.053e+04 1.043e-09
 51.09608   -117.3 1.052e+04 1.024e-09
 51.10555   -116.5 1.028e+04 9.297e-10
 51.11556   -116.5 1.043e+04 1.023e-09
 51.13346   -115.6 1.009e+04 8.783e-10
 51.15348   -114.5 9.786e+03 7.631e-10
 51.17351   -113.5 9.538e+03 6.769e-10
 51.19353   -112.6 9.334e+03 6.059e-10
 51.20477   -111.5 9.130e+03 5.423e-10
 51.21479   -111.2 9.082e+03 5.224e-10
 51.23358   -109.8 8.930e+03 4.678e-10
 51.26371   -108.3 8.878e+03 4.364e-10
 51.30386   -106.9 8.800e+03 4.082e-10
 51.34391   -105.0 8.616e+03 3.679e-10
 51.38340   -102.9 8.395e+03 3.255e-10
 51.40342   -102.6 8.471e+03 3.502e-10
 51.42400   -100.6 8.318e+03 3.285e-10
 51.46405    -98.5 8.178e+03 3.055e-10
 51.49040    -96.4 8.068e+03 2.836e-10
 51.51042    -96.2 8.207e+03 3.103e-10
 51.54415    -94.0 8.045e+03 2.752e-10
 51.58185    -91.8 7.925e+03 2.460e-10
 51.60187    -91.1 8.044e+03 2.788e-10
 51.62425    -89.0 7.937e+03 2.451e-10
 51.66429    -86.8 7.840e+03 2.139e-10
 51.70434    -84.7 7.771e+03 1.861e-10
 51.74439    -82.4 7.757e+03 1.666e-10
 51.78030    -80.0 7.791e+03 1.608e-10
 51.80032    -79.6 7.812e+03 1.596e-10
 51.82449    -77.1 7.841e+03 1.591e-10
 51.86454    -74.5 7.981e+03 1.674e-10
 51.89454    -72.1 8.242e+03 1.964e-10
 51.91456    -71.2 7.923e+03 1.556e-10
 51.94463    -68.9 8.215e+03 1.858e-10
 51.97875    -66.7 8.682e+03 2.669e-10
 51.99878    -65.7 8.529e+03 2.490e-10
 52.02473    -63.5 9.047e+03 3.687e-10
 52.06478    -61.3 9.673e+03 5.680e-10
 52.10483    -59.1 1.035e+04 8.539e-10
 52.14488    -57.1 1.098e+04 1.183e-09
 52.17720    -55.2 1.158e+04 1.514e-09
 52.19723    -54.2 1.110e+04 1.209e-09
 52.22497    -52.5 1.172e+04 1.564e-09
 52.26502    -51.1 1.223e+04 1.810e-09
 52.28634    -50.9 1.306e+04 2.532e-09
 52.29626    -49.9 1.262e+04 2.099e-09
 52.30849    -49.6 1.302e+04 2.359e-09
 52.31850    -49.5 1.363e+04 3.227e-09
 52.33491    -49.4 1.399e+04 3.780e-09
 52.35493    -49.1 1.429e+04 4.332e-09
 52.37496    -48.9 1.446e+04 4.645e-09
 52.38547    -48.8 1.450e+04 4.696e-09
 52.39548    -48.4 1.420e+04 3.927e-09
 52.41501    -48.5 1.419e+04 3.877e-09
 52.43503    -48.7 1.400e+04 3.474e-09
 52.45506    -49.0 1.366e+04 2.972e-09
 52.47468    -49.6 1.322e+04 2.484e-09
 52.48470    -49.0 1.323e+04 2.613e-09
 52.49510    -49.1 1.284e+04 2.260e-09
 52.51056    -49.0 1.247e+04 1.874e-09
 52.52057    -48.6 1.290e+04 2.095e-09
 52.53515    -48.5 1.246e+04 1.604e-09
 52.55518    -48.2 1.207e+04 1.201e-09
 52.57391    -47.9 1.173e+04 9.049e-10
 52.58392    -47.2 1.186e+04 1.048e-09
 52.59522    -46.9 1.156e+04 8.131e-10
 52.61525    -46.5 1.141e+04 6.819e-10
 52.63527    -46.0 1.140e+04 6.218e-10
 52.65530    -45.7 1.141e+04 6.057e-10
 52.67314    -45.5 1.155e+04 6.177e-10
 52.68315    -45.0 1.159e+04 6.406e-10
 52.69535    -45.0 1.189e+04 7.359e-10
 52.71263    -45.0 1.219e+04 9.370e-10
 52.72264    -44.5 1.196e+04 6.601e-10
 52.73539    -44.5 1.216e+04 8.289e-10
 52.75542    -44.3 1.238e+04 1.046e-09
 52.77236    -44.1 1.263e+04 1.278e-09
 52.78237    -43.5 1.270e+04 1.385e-09
 52.79547    -43.3 1.292e+04 1.575e-09
 52.81549    -43.1 1.305e+04 1.643e-09
 52.83552    -42.9 1.308e+04 1.638e-09
 52.86565    -42.8 1.300e+04 1.546e-09
 52.90580    -42.4 1.288e+04 1.404e-09
 52.94584    -42.3 1.266e+04 1.192e-09
 52.97101    -42.1 1.252e+04 1.099e-09
 52.99103    -40.7 1.255e+04 1.105e-09
 53.02594    -40.4 1.249e+04 1.085e-09
 53.06599    -39.7 1.244e+04 1.078e-09
 53.10604    -38.9 1.230e+04 1.023e-09
 53.12687    -38.0 1.201e+04 9.043e-10
 53.13679    -37.9 1.190e+04 8.986e-10
 53.15590    -37.1 1.180e+04 8.127e-10
 53.16926    -36.5 1.172e+04 7.258e-10
 53.17928    -36.1 1.185e+04 7.606e-10
 53.19595    -35.4 1.168e+04 6.638e-10
 53.21597    -34.6 1.143e+04 5.567e-10
 53.23600    -33.8 1.121e+04 4.470e-10
 53.25602    -33.1 1.108e+04 3.632e-10
 53.26849    -32.5 1.107e+04 3.196e-10
 53.27850    -32.2 1.119e+04 3.607e-10
 53.29607    -31.7 1.121e+04 3.487e-10
 53.31610    -31.6 1.132e+04 3.505e-10
 53.32884    -31.8 1.171e+04 4.187e-10
 53.33886    -32.5 1.174e+04 4.230e-10
 53.35614    -33.0 1.208e+04 6.129e-10
 53.36772    -33.2 1.241e+04 9.294e-10
 53.37773    -33.0 1.264e+04 1.146e-09
 53.39619    -32.7 1.301e+04 1.642e-09
 53.41622    -32.2 1.336e+04 2.182e-09
 53.43624    -31.6 1.361e+04 2.633e-09
 53.45627    -31.0 1.378e+04 2.877e-09
 53.46694    -30.6 1.388e+04 2.969e-09
 53.47695    -30.5 1.419e+04 3.256e-09
 53.49631    -30.3 1.420e+04 3.265e-09
 53.51634    -30.0 1.413e+04 3.179e-09
 53.53091    -29.9 1.402e+04 2.951e-09
 53.55080    -31.0 1.326e+04 1.685e-09
 53.56626    -30.3 1.331e+04 1.683e-09
 53.57641    -30.0 1.299e+04 1.320e-09
 53.59643    -29.8 1.275e+04 1.049e-09
 53.62657    -30.2 1.219e+04 6.973e-10
 53.66671    -29.5 1.188e+04 6.173e-10
 53.70676    -28.6 1.161e+04 5.705e-10
 53.74479    -27.2 1.145e+04 5.531e-10
 53.76481    -27.1 1.143e+04 5.440e-10
 53.78686    -25.7 1.131e+04 5.306e-10
 53.82691    -24.3 1.115e+04 4.709e-10
 53.86696    -23.1 1.101e+04 3.763e-10
 53.90701    -22.3 1.089e+04 2.915e-10
 53.93524    -21.7 1.083e+04 2.595e-10
 53.95146    -21.3 1.077e+04 2.570e-10
 53.96327    -20.7 1.075e+04 2.595e-10
 53.98710    -20.2 1.084e+04 3.009e-10
 54.02715    -19.4 1.102e+04 3.984e-10
 54.06720    -18.3 1.123e+04 4.774e-10
 54.10725    -17.0 1.136e+04 5.068e-10
 54.14169    -15.8 1.130e+04 4.591e-10
 54.16172    -15.2 1.132e+04 4.438e-10
 54.18734    -13.7 1.114e+04 3.479e-10
 54.22739    -12.0 1.092e+04 2.591e-10
 54.26744    -10.3 1.069e+04 1.995e-10
 54.30749     -8.6 1.063e+04 1.710e-10
 54.33938     -6.9 1.063e+04 1.656e-10
 54.35201     -6.6 1.061e+04 1.759e-10
 54.36017     -6.6 1.074e+04 2.200e-10
 54.38759     -4.7 1.075e+04 2.428e-10
 54.42763     -2.6 1.078e+04 2.700e-10
 54.46768     -0.5 1.081e+04 2.851e-10
 54.50773      1.7 1.082e+04 2.566e-10
 54.53860      3.9 1.077e+04 2.236e-10
 54.55862      4.1 1.077e+04 1.871e-10
 54.58783      6.1 1.075e+04 1.404e-10
 54.62788      8.0 1.078e+04 1.087e-10
 54.66792      9.9 1.080e+04 9.102e-11
 54.70797     11.8 1.073e+04 8.491e-11
 54.73705     14.0 1.062e+04 8.621e-11
 54.75257     14.1 1.047e+04 7.492e-11
 54.76354     14.5 1.056e+04 7.700e-11
 54.78807     16.9 1.053e+04 7.290e-11
 54.82812     19.3 1.058e+04 6.683e-11
 54.86817     21.6 1.064e+04 6.154e-11
 54.90821     23.8 1.072e+04 6.037e-11
 54.93550     25.8 1.077e+04 6.618e-11
 54.95552     26.0 1.093e+04 3.819e-11
 54.98831     27.3 1.099e+04 4.960e-11
 55.02836     28.8 1.085e+04 8.565e-11
 55.06841     31.0 1.076e+04 1.588e-10
 55.10846     33.5 1.087e+04 2.492e-10
 55.13395     35.9 1.105e+04 3.302e-10
 55.15312     36.3 1.089e+04 3.010e-10
 55.16768     36.7 1.118e+04 3.572e-10
 55.18855     38.7 1.121e+04 3.751e-10
 55.22860     41.0 1.110e+04 3.238e-10
 55.26865     43.1 1.112e+04 2.293e-10
 55.30870     44.4 1.121e+04 1.678e-10
 55.33240     45.7 1.114e+04 1.462e-10
 55.35243     45.8 1.103e+04 1.365e-10
 55.38880     47.7 1.097e+04 1.433e-10
 55.42884     49.9 1.097e+04 1.424e-10
 55.46889     52.0 1.100e+04 1.335e-10
 55.50894     54.0 1.105e+04 1.230e-10
 55.53085     55.7 1.107e+04 1.192e-10
 55.55088     56.1 1.106e+04 1.219e-10
 55.57181     57.9 1.103e+04 1.201e-10
 55.59184     58.6 1.106e+04 1.505e-10
 55.62909     60.5 1.104e+04 1.554e-10
 55.66913     62.4 1.103e+04 1.582e-10
 55.70918     64.2 1.103e+04 1.628e-10
 55.74923     66.3 1.101e+04 1.726e-10
 55.78928     68.2 1.100e+04 1.884e-10
 55.82933     70.1 1.102e+04 2.002e-10
 55.86938     71.9 1.103e+04 1.998e-10
 55.90773     73.6 1.104e+04 1.859e-10
 55.92776     74.1 1.101e+04 1.827e-10
 55.94947     75.5 1.104e+04 1.598e-10
 55.97595     76.8 1.106e+04 1.407e-10
 55.99598     77.3 1.120e+04 1.797e-10
 56.02957     78.4 1.121e+04 1.860e-10
 56.06962     79.6 1.124e+04 2.026e-10
 56.10618     80.7 1.129e+04 2.303e-10
 56.12621     81.5 1.129e+04 2.348e-10
 56.14972     82.5 1.130e+04 2.753e-10
 56.18976     83.6 1.119e+04 2.928e-10
 56.22981     84.5 1.115e+04 2.933e-10
 56.26986     85.3 1.110e+04 2.928e-10
 56.30463     86.0 1.107e+04 3.055e-10
 56.32466     86.7 1.107e+04 3.084e-10
 56.34996     87.6 1.105e+04 3.346e-10
 56.38009     88.6 1.103e+04 3.729e-10
 56.40011     88.3 1.113e+04 3.922e-10
 56.43005     89.5 1.112e+04 4.307e-10
 56.47010     90.9 1.119e+04 4.916e-10
 56.50309     92.3 1.133e+04 5.444e-10
 56.52311     93.1 1.142e+04 6.110e-10
 56.55020     94.4 1.143e+04 6.062e-10
 56.59025     95.8 1.138e+04 5.487e-10
 56.63030     97.2 1.125e+04 4.452e-10
 56.67034     98.5 1.108e+04 3.471e-10
 56.70154     99.8 1.095e+04 2.724e-10
 56.72156    100.8 1.093e+04 2.561e-10
 56.75044    102.0 1.084e+04 2.167e-10
 56.78422    103.2 1.076e+04 1.995e-10
 56.80425    103.3 1.077e+04 2.014e-10
 56.83054    104.7 1.067e+04 1.990e-10
 56.87059    106.2 1.064e+04 1.998e-10
 56.89999    107.7 1.061e+04 2.006e-10
 56.92001    108.8 1.060e+04 1.985e-10
 56.95068    110.3 1.057e+04 1.998e-10
 56.99073    111.6 1.054e+04 1.966e-10
 57.03078    112.9 1.051e+04 1.860e-10
 57.07083    114.1 1.052e+04 1.751e-10
 57.09844    115.3 1.057e+04 1.722e-10
 57.11846    116.6 1.056e+04 1.738e-10
 57.15093    117.8 1.059e+04 1.756e-10
 57.18836    118.9 1.065e+04 1.809e-10
 57.20839    119.1 1.073e+04 2.225e-10
 57.23102    120.2 1.077e+04 2.429e-10
 57.27107    121.3 1.077e+04 2.529e-10
 57.29689    122.4 1.074e+04 2.537e-10
 57.31692    123.8 1.075e+04 2.494e-10
 57.35117    124.8 1.073e+04 2.480e-10
 57.39122    125.9 1.068e+04 2.353e-10
 57.43126    126.8 1.065e+04 2.200e-10
 57.47131    127.7 1.062e+04 2.114e-10
 57.49534    128.7 1.063e+04 2.139e-10
 57.51537    129.6 1.062e+04 2.185e-10
 57.55141    130.5 1.061e+04 2.148e-10
 57.59146    131.4 1.064e+04 2.279e-10
 57.61252    132.4 1.071e+04 2.587e-10
 57.63255    132.7 1.071e+04 2.310e-10
 57.67155    133.8 1.079e+04 2.736e-10
 57.69379    134.9 1.087e+04 3.172e-10
 57.71382    135.9 1.072e+04 2.230e-10
 57.75165    137.0 1.078e+04 2.521e-10
 57.79170    138.1 1.085e+04 2.866e-10
 57.83175    139.2 1.092e+04 3.291e-10
 57.87180    140.4 1.097e+04 3.747e-10
 57.89225    141.7 1.099e+04 4.131e-10
 57.91227    142.7 1.091e+04 3.505e-10
 57.95189    144.0 1.092e+04 4.041e-10
 57.99194    145.4 1.092e+04 4.331e-10
 58.01666    146.9 1.090e+04 4.325e-10
 58.03668    147.2 1.109e+04 5.536e-10
 58.07067    148.7 1.105e+04 5.239e-10
 58.09070    149.6 1.109e+04 5.647e-10
 58.11209    151.0 1.108e+04 5.465e-10
 58.15214    152.4 1.106e+04 5.213e-10
 58.19218    153.8 1.103e+04 5.037e-10
 58.23223    155.3 1.102e+04 4.980e-10
 58.26912    156.7 1.100e+04 4.988e-10
 58.28915    157.3 1.106e+04 5.580e-10
 58.31233    158.7 1.105e+04 5.568e-10
 58.35238    160.1 1.104e+04 5.431e-10
 58.39243    161.4 1.099e+04 5.083e-10
 58.42080    162.8 1.089e+04 4.492e-10
 58.44082    162.7 1.097e+04 5.031e-10
 58.46758    164.2 1.085e+04 4.308e-10
 58.48760    164.9 1.087e+04 4.426e-10
 58.51257    166.4 1.075e+04 3.578e-10
 58.55262    167.9 1.064e+04 2.900e-10
 58.59267    169.5 1.056e+04 2.646e-10
 58.63272    171.3 1.055e+04 2.669e-10
 58.66603    173.1 1.055e+04 2.775e-10
 58.68605    173.8 1.058e+04 3.078e-10
 58.71281    175.6 1.061e+04 3.474e-10
 58.75286    177.3 1.068e+04 4.106e-10
 58.79291    179.0 1.077e+04 4.939e-10
 58.82493    180.6 1.095e+04 5.886e-10
 58.84496    180.8 1.097e+04 5.863e-10
 58.86448    182.3 1.114e+04 6.767e-10
 58.88450    183.1 1.129e+04 8.036e-10
 58.91305    184.4 1.147e+04 9.293e-10
 58.95310    185.4 1.157e+04 1.014e-09
 58.99315    186.3 1.160e+04 1.017e-09
 59.03320    187.4 1.161e+04 9.697e-10
 59.06293    188.2 1.159e+04 9.158e-10
 59.07284    188.8 1.158e+04 9.604e-10
 59.08307    189.1 1.153e+04 9.447e-10
 59.10309    189.5 1.151e+04 9.449e-10
 59.12311    189.7 1.151e+04 9.564e-10
 59.14314    190.1 1.153e+04 9.796e-10
 59.16196    190.5 1.157e+04 1.013e-09
 59.17197    191.6 1.178e+04 1.219e-09
 59.18319    191.9 1.190e+04 1.318e-09
 59.20321    191.9 1.203e+04 1.408e-09
 59.22323    191.9 1.217e+04 1.484e-09
 59.23889    191.8 1.231e+04 1.557e-09
 59.24890    191.6 1.283e+04 2.289e-09
 59.26119    191.5 1.306e+04 2.607e-09
 59.27120    191.4 1.343e+04 3.383e-09
 59.28331    191.3 1.352e+04 3.483e-09
 59.30333    191.0 1.350e+04 3.422e-09
 59.32336    191.0 1.337e+04 3.138e-09
 59.34338    191.0 1.311e+04 2.514e-09
 59.36041    191.0 1.281e+04 1.763e-09
 59.37042    191.0 1.293e+04 1.932e-09
 59.38343    190.5 1.268e+04 1.186e-09
 59.40345    189.5 1.245e+04 7.580e-10
 59.42348    188.1 1.200e+04 6.290e-10
 59.44095    187.5 1.182e+04 6.247e-10
 59.45097    187.8 1.175e+04 6.899e-10
 59.45964    187.6 1.170e+04 6.887e-10
 59.46965    187.7 1.174e+04 7.393e-10
 59.48355    187.7 1.172e+04 7.430e-10
 59.50357    187.8 1.169e+04 7.657e-10
 59.52360    187.8 1.170e+04 8.299e-10
 59.54362    187.7 1.176e+04 9.296e-10
 59.55886    187.6 1.188e+04 1.051e-09
 59.56888    187.7 1.211e+04 1.117e-09
 59.58367    187.6 1.230e+04 1.234e-09
 59.60369    187.2 1.250e+04 1.351e-09
 59.62372    186.6 1.268e+04 1.467e-09
 59.64302    185.9 1.279e+04 1.595e-09
 59.65303    184.4 1.395e+04 2.565e-09
 59.65809    184.2 1.385e+04 2.778e-09
 59.66810    184.4 1.463e+04 3.799e-09
 59.68379    184.5 1.431e+04 3.836e-09
 59.70382    184.9 1.403e+04 3.736e-09
 59.72384    185.2 1.382e+04 3.492e-09
 59.74386    185.5 1.384e+04 3.598e-09
 59.75731    185.7 1.384e+04 3.626e-09
 59.76733    186.4 1.395e+04 3.726e-09
 59.79402    186.8 1.389e+04 3.587e-09
 59.83417    187.8 1.363e+04 2.945e-09
 59.85674    189.0 1.329e+04 2.288e-09
 59.87676    189.6 1.344e+04 2.487e-09
 59.91426    191.0 1.300e+04 1.852e-09
 59.95431    192.6 1.264e+04 1.427e-09
 59.99436    194.3 1.240e+04 1.159e-09
 60.03441    196.1 1.231e+04 1.043e-09
 60.05519    198.0 1.233e+04 1.046e-09
 60.05812    198.6 1.209e+04 8.522e-10
 60.07739    198.4 1.197e+04 8.059e-10
 60.11451    200.2 1.197e+04 8.199e-10
 60.15456    201.8 1.205e+04 8.941e-10
 60.19460    203.0 1.228e+04 1.093e-09
 60.23361    204.0 1.260e+04 1.444e-09
 60.25364    204.6 1.220e+04 1.046e-09
 60.27470    205.5 1.253e+04 1.340e-09
 60.31475    206.1 1.296e+04 1.799e-09
 60.35480    206.3 1.336e+04 2.377e-09
 60.39485    206.5 1.372e+04 3.025e-09
 60.43207    206.7 1.390e+04 3.458e-09
 60.45209    207.3 1.341e+04 2.470e-09
 60.46150    207.5 1.352e+04 2.832e-09
 60.48153    207.7 1.330e+04 2.190e-09
 60.51499    208.0 1.324e+04 2.229e-09
 60.55504    208.6 1.318e+04 2.248e-09
 60.59509    209.8 1.318e+04 2.327e-09
 60.63052    211.5 1.331e+04 2.500e-09
 60.65054    211.9 1.303e+04 2.071e-09
 60.67518    213.9 1.337e+04 2.485e-09
 60.70512    214.4 1.353e+04 2.721e-09
 60.72505    214.8 1.375e+04 3.098e-09
 60.73956    215.2 1.400e+04 3.664e-09
 60.74957    215.7 1.386e+04 3.220e-09
 60.76510    216.1 1.412e+04 3.968e-09
 60.78512    216.6 1.436e+04 4.680e-09
 60.80515    217.2 1.459e+04 5.356e-09
 60.82517    217.9 1.476e+04 5.760e-09
 60.83879    218.4 1.484e+04 5.674e-09
 60.84880    218.7 1.501e+04 6.719e-09
 60.86522    219.2 1.516e+04 6.669e-09
 60.87546    219.6 1.516e+04 6.537e-09
 60.88547    219.8 1.518e+04 6.805e-09
 60.90527    220.2 1.519e+04 6.498e-09
 60.92529    220.5 1.512e+04 5.977e-09
 60.93801    220.7 1.495e+04 5.266e-09
 60.94802    221.2 1.529e+04 6.515e-09
 60.96534    221.4 1.507e+04 5.578e-09
 60.98536    221.6 1.473e+04 4.546e-09
 61.00539    221.8 1.437e+04 3.774e-09
 61.02732    222.5 1.381e+04 2.894e-09
 61.04744    223.3 1.432e+04 3.481e-09
 61.07567    224.2 1.369e+04 2.503e-09
 61.11572    225.3 1.310e+04 1.902e-09
 61.15576    226.5 1.270e+04 1.528e-09
 61.19581    228.0 1.254e+04 1.359e-09
 61.22587    229.5 1.252e+04 1.304e-09
 61.24590    229.8 1.257e+04 1.360e-09
 61.26978    231.3 1.252e+04 1.301e-09
 61.28980    231.6 1.289e+04 1.746e-09
 61.31596    232.9 1.274e+04 1.545e-09
 61.35601    234.2 1.256e+04 1.359e-09
 61.39606    235.7 1.240e+04 1.219e-09
 61.42432    237.3 1.223e+04 1.097e-09
 61.44435    237.5 1.226e+04 1.086e-09
 61.47615    239.1 1.216e+04 1.050e-09
 61.51620    240.7 1.206e+04 1.002e-09
 61.55625    242.3 1.194e+04 9.384e-10
 61.59630    244.2 1.183e+04 8.695e-10
 61.62277    246.2 1.168e+04 7.571e-10
 61.64280    246.2 1.210e+04 1.005e-09
 61.66628    247.5 1.191e+04 8.546e-10
 61.68373    248.2 1.175e+04 7.496e-10
 61.69384    248.5 1.165e+04 7.065e-10
 61.71644    250.6 1.154e+04 6.496e-10
 61.75649    252.8 1.143e+04 5.921e-10
 61.79654    255.2 1.132e+04 5.388e-10
 61.82123    257.6 1.126e+04 5.021e-10
 61.84125    257.6 1.140e+04 5.805e-10
 61.87664    260.0 1.135e+04 5.299e-10
 61.91668    262.4 1.134e+04 5.134e-10
 61.95673    265.0 1.140e+04 5.123e-10
 61.99678    267.4 1.151e+04 5.223e-10
 62.01968    269.6 1.166e+04 5.534e-10
 62.02959    268.8 1.163e+04 5.663e-10
 62.04665    269.6 1.161e+04 5.727e-10
 62.06667    270.7 1.158e+04 5.811e-10
 62.08669    272.2 1.155e+04 6.036e-10
 62.09788    273.7 1.156e+04 6.454e-10
 62.10789    273.6 1.155e+04 6.401e-10
 62.11871    275.4 1.154e+04 6.915e-10
 62.12872    275.8 1.162e+04 7.385e-10
 62.14677    277.3 1.173e+04 8.312e-10
 62.16679    278.5 1.187e+04 9.200e-10
 62.18682    279.5 1.204e+04 1.001e-09
 62.20684    280.6 1.227e+04 1.106e-09
 62.21793    281.6 1.248e+04 1.277e-09
 62.22795    281.6 1.262e+04 1.430e-09
 62.24689    282.7 1.283e+04 1.711e-09
 62.26691    283.7 1.304e+04 2.025e-09
 62.28694    284.8 1.324e+04 2.319e-09
 62.29995    285.8 1.340e+04 2.512e-09
 62.30996    286.3 1.309e+04 2.087e-09
 62.31716    287.2 1.321e+04 2.214e-09
 62.32717    287.4 1.349e+04 2.641e-09
 62.34701    288.3 1.355e+04 2.641e-09
 62.36703    289.1 1.355e+04 2.592e-09
 62.38706    289.8 1.350e+04 2.439e-09
 62.40637    290.4 1.341e+04 2.185e-09
 62.41638    290.6 1.385e+04 2.839e-09
 62.42711    291.2 1.370e+04 2.420e-09
 62.44713    291.5 1.348e+04 1.975e-09
 62.46715    291.6 1.313e+04 1.554e-09
 62.48718    291.6 1.277e+04 1.295e-09
 62.50211    292.4 1.275e+04 1.324e-09
 62.51052    292.2 1.292e+04 1.363e-09
 62.51561    292.3 1.340e+04 1.735e-09
 62.52723    292.3 1.307e+04 1.497e-09
 62.55736    293.0 1.292e+04 1.316e-09
 62.58740    292.9 1.277e+04 1.251e-09
 62.60482    293.2 1.261e+04 1.146e-09
 62.61493    293.0 1.298e+04 1.322e-09
 62.63756    293.4 1.247e+04 9.562e-10
 62.66749    293.4 1.221e+04 7.971e-10
 62.68742    293.6 1.209e+04 6.935e-10
 62.70405    293.8 1.201e+04 6.136e-10
 62.71406    293.2 1.194e+04 6.096e-10
 62.72747    293.5 1.183e+04 5.642e-10
 62.74749    294.0 1.180e+04 5.576e-10
 62.76752    294.6 1.180e+04 5.550e-10
 62.78754    295.2 1.180e+04 5.594e-10
 62.80328    295.9 1.184e+04 5.748e-10
 62.81329    295.6 1.193e+04 6.406e-10
 62.82759    296.3 1.202e+04 6.727e-10
 62.84761    296.9 1.213e+04 7.129e-10
 62.86764    297.4 1.224e+04 7.555e-10
 62.88766    297.9 1.234e+04 7.940e-10
 62.90250    298.4 1.241e+04 8.223e-10
 62.91098    297.9 1.252e+04 8.696e-10
 62.91616    297.7 1.255e+04 8.714e-10
 62.92771    298.2 1.255e+04 8.613e-10
 62.94774    298.8 1.253e+04 8.383e-10
 62.96776    299.5 1.249e+04 8.058e-10
 62.98778    300.3 1.245e+04 7.706e-10
 63.00173    301.0 1.241e+04 7.371e-10
 63.01174    300.5 1.235e+04 6.810e-10
 63.02783    301.4 1.230e+04 6.457e-10
 63.04786    302.2 1.227e+04 6.151e-10
 63.06788    303.1 1.225e+04 5.893e-10
 63.08790    304.0 1.224e+04 5.669e-10
 63.10095    304.9 1.224e+04 5.480e-10
 63.11096    304.6 1.212e+04 4.882e-10
 63.11823    305.6 1.213e+04 4.749e-10
 63.12825    305.9 1.211e+04 5.219e-10
 63.14798    307.0 1.215e+04 5.141e-10
 63.16800    308.1 1.216e+04 5.111e-10
 63.18803    309.3 1.219e+04 5.086e-10
 63.20018    310.4 1.223e+04 5.085e-10
 63.21019    310.3 1.215e+04 4.733e-10
 63.22807    311.4 1.220e+04 4.790e-10
 63.24810    312.5 1.224e+04 4.871e-10
 63.26812    313.7 1.227e+04 4.968e-10
 63.28815    314.9 1.228e+04 5.076e-10
 63.29940    316.1 1.229e+04 5.178e-10
 63.30942    316.4 1.224e+04 5.185e-10
 63.32030    317.7 1.227e+04 5.355e-10
 63.33031    318.0 1.235e+04 5.541e-10
 63.34822    319.3 1.236e+04 5.580e-10
 63.36824    320.5 1.236e+04 5.594e-10
 63.38827    321.8 1.235e+04 5.607e-10
 63.39863    323.1 1.237e+04 5.607e-10
 63.40864    323.4 1.243e+04 6.203e-10
 63.42832    324.8 1.248e+04 6.296e-10
 63.44834    326.1 1.253e+04 6.453e-10
 63.46836    327.3 1.260e+04 6.729e-10
 63.48784    328.4 1.269e+04 7.169e-10
 63.49786    328.7 1.275e+04 8.489e-10
 63.50841    329.9 1.287e+04 9.231e-10
 63.52237    331.0 1.302e+04 1.031e-09
 63.53238    331.5 1.303e+04 9.619e-10
 63.54846    332.6 1.324e+04 1.115e-09
 63.56849    333.6 1.350e+04 1.351e-09
 63.58707    334.5 1.384e+04 1.705e-09
 63.59708    334.9 1.387e+04 1.795e-09
 63.60853    335.8 1.421e+04 2.197e-09
 63.62856    336.7 1.460e+04 2.708e-09
 63.64858    337.5 1.502e+04 3.316e-09
 63.66861    338.1 1.540e+04 3.942e-09
 63.68629    338.6 1.569e+04 4.389e-09
 63.69631    338.8 1.523e+04 3.568e-09
 63.70865    339.2 1.538e+04 3.763e-09
 63.72444    339.6 1.541e+04 3.759e-09
 63.73445    340.0 1.627e+04 5.775e-09
 63.74870    340.3 1.625e+04 5.716e-09
 63.76873    340.6 1.616e+04 5.479e-09
 63.78552    341.1 1.595e+04 4.991e-09
 63.79553    341.7 1.581e+04 4.857e-09
 63.80878    342.3 1.567e+04 4.529e-09
 63.82880    342.9 1.546e+04 4.106e-09
 63.84882    343.6 1.525e+04 3.664e-09
 63.86885    344.2 1.505e+04 3.265e-09
 63.88475    344.8 1.487e+04 2.940e-09
 63.89476    345.8 1.513e+04 3.488e-09
 63.90890    346.5 1.501e+04 3.221e-09
 63.92651    347.2 1.488e+04 2.994e-09
 63.93652    347.3 1.541e+04 4.138e-09
 63.94895    348.0 1.526e+04 3.911e-09
 63.96897    348.7 1.506e+04 3.664e-09
 63.98397    349.4 1.482e+04 3.389e-09
 63.99398    350.4 1.527e+04 4.035e-09
 64.00902    351.2 1.499e+04 3.660e-09
 64.02904    352.0 1.470e+04 3.280e-09
 64.04907    352.8 1.443e+04 2.924e-09
 64.06909    353.6 1.420e+04 2.590e-09
 64.08320    354.2 1.400e+04 2.313e-09
 64.09321    355.3 1.428e+04 2.644e-09
 64.10914    356.0 1.407e+04 2.403e-09
 64.12857    356.7 1.398e+04 2.285e-09
 64.13859    356.3 1.387e+04 2.144e-09
 64.14919    356.9 1.378e+04 1.994e-09
 64.16921    357.5 1.370e+04 1.833e-09
 64.18242    358.0 1.360e+04 1.644e-09
 64.19244    359.6 1.396e+04 2.139e-09
 64.20926    360.2 1.392e+04 1.992e-09
 64.22928    360.8 1.378e+04 1.615e-09
 64.24931    361.0 1.356e+04 1.324e-09
 64.26933    361.6 1.325e+04 1.006e-09
 64.28165    362.1 1.293e+04 8.177e-10
 64.29166    363.5 1.356e+04 1.144e-09
 64.30938    364.1 1.312e+04 8.131e-10
 64.32941    364.6 1.262e+04 5.705e-10
 64.35954    365.6 1.165e+04 2.711e-10
 64.38107    367.0 1.069e+04 1.514e-10
 64.39098    366.8 1.094e+04 1.702e-10
 64.40950    367.1 1.040e+04 1.512e-10
 64.43964    369.1 1.036e+04 1.563e-10
 64.47978    370.5 1.023e+04 1.554e-10
 64.51983    372.0 1.023e+04 1.576e-10
 64.54292    373.4 1.018e+04 1.645e-10
 64.56256    373.8 1.015e+04 1.678e-10
 64.57952    374.6 1.043e+04 2.165e-10
 64.59993    376.1 1.048e+04 2.333e-10
 64.63998    377.4 1.052e+04 2.478e-10
 64.68002    378.5 1.057e+04 2.625e-10
 64.72007    379.4 1.067e+04 2.846e-10
 64.75795    380.0 1.076e+04 3.122e-10
 64.77797    380.6 1.087e+04 3.304e-10
 64.79006    380.3 1.085e+04 3.450e-10
 64.80999    380.4 1.082e+04 3.573e-10
 64.83001    381.2 1.081e+04 3.945e-10
 64.85003    382.6 1.091e+04 4.689e-10
 64.86699    383.5 1.112e+04 5.723e-10
 64.87700    383.8 1.136e+04 6.728e-10
 64.89008    383.8 1.164e+04 8.090e-10
 64.91011    383.7 1.193e+04 9.507e-10
 64.93013    383.6 1.231e+04 1.115e-09
 64.94686    383.2 1.273e+04 1.327e-09
 64.95687    384.0 1.253e+04 1.253e-09
 64.96622    383.5 1.289e+04 1.437e-09
 64.97623    383.4 1.339e+04 1.862e-09
 64.99020    382.9 1.380e+04 2.182e-09
 65.01023    382.2 1.413e+04 2.480e-09
 65.03025    381.5 1.432e+04 2.658e-09
 65.05028    380.6 1.437e+04 2.679e-09
 65.06544    379.6 1.434e+04 2.594e-09
 65.07545    379.1 1.439e+04 2.599e-09
 65.09032    378.0 1.415e+04 2.335e-09
 65.11035    377.0 1.386e+04 2.056e-09
 65.13037    376.0 1.358e+04 1.814e-09
 65.14893    374.9 1.333e+04 1.640e-09
 65.15894    375.9 1.320e+04 1.501e-09
 65.16467    374.8 1.296e+04 1.357e-09
 65.17468    374.4 1.287e+04 1.331e-09
 65.19045    373.4 1.266e+04 1.267e-09
 65.21047    372.6 1.248e+04 1.244e-09
 65.23049    372.0 1.236e+04 1.237e-09
 65.25052    371.5 1.228e+04 1.232e-09
 65.26389    371.2 1.223e+04 1.228e-09
 65.27391    371.3 1.228e+04 1.262e-09
 65.29057    371.0 1.226e+04 1.278e-09
 65.31059    370.7 1.227e+04 1.299e-09
 65.33062    370.5 1.231e+04 1.340e-09
 65.35064    370.3 1.241e+04 1.420e-09
 65.36101    370.0 1.260e+04 1.560e-09
 65.36348    370.7 1.257e+04 1.544e-09
 65.37313    371.0 1.278e+04 1.759e-09
 65.39069    370.7 1.312e+04 2.051e-09
 65.41071    370.4 1.352e+04 2.374e-09
 65.43074    369.9 1.393e+04 2.638e-09
 65.45076    369.1 1.429e+04 2.700e-09
 65.46235    368.0 1.434e+04 2.689e-09
 65.47236    368.5 1.442e+04 2.727e-09
 65.49081    367.1 1.439e+04 2.563e-09
 65.51083    365.7 1.422e+04 2.356e-09
 65.53086    364.3 1.396e+04 2.169e-09
 65.55088    363.0 1.367e+04 2.037e-09
 65.56157    361.9 1.349e+04 1.976e-09
 65.56375    362.7 1.348e+04 1.975e-09
 65.57309    363.1 1.378e+04 2.200e-09
 65.59093    362.2 1.360e+04 2.143e-09
 65.61095    361.6 1.350e+04 2.057e-09
 65.63098    361.2 1.340e+04 1.918e-09
 65.65078    360.6 1.325e+04 1.713e-09
 65.66080    362.0 1.372e+04 2.238e-09
 65.67103    361.5 1.361e+04 1.971e-09
 65.69105    360.7 1.330e+04 1.596e-09
 65.72118    360.5 1.249e+04 1.115e-09
 65.75021    360.6 1.170e+04 7.993e-10
 65.76012    360.7 1.235e+04 9.921e-10
 65.76515    360.5 1.176e+04 7.947e-10
 65.77516    360.3 1.160e+04 7.315e-10
 65.80128    361.4 1.112e+04 5.619e-10
 65.84143    361.5 1.019e+04 3.658e-10
 65.88148    362.3 9.422e+03 2.450e-10
 65.92152    363.3 9.225e+03 1.977e-10
 65.94866    364.5 9.240e+03 1.968e-10
 65.96868    365.0 9.435e+03 2.266e-10
 66.00162    366.1 9.472e+03 2.297e-10
 66.04167    366.8 9.603e+03 2.455e-10
 66.08172    367.0 9.801e+03 2.775e-10
 66.12177    366.8 9.960e+03 3.199e-10
 66.14701    366.6 1.002e+04 3.464e-10
 66.15693    367.3 9.970e+03 3.609e-10
 66.16928    367.6 1.003e+04 4.001e-10
 66.17929    367.6 9.983e+03 3.708e-10
 66.19166    367.7 1.003e+04 3.961e-10
 66.21168    367.8 1.010e+04 4.262e-10
 66.23170    367.8 1.019e+04 4.518e-10
 66.24614    367.5 1.027e+04 4.682e-10
 66.25615    367.5 1.039e+04 5.078e-10
 66.27175    366.6 1.052e+04 5.273e-10
 66.29178    365.6 1.067e+04 5.480e-10
 66.31180    364.5 1.080e+04 5.693e-10
 66.33183    363.4 1.088e+04 5.808e-10
 66.34536    362.4 1.091e+04 5.780e-10
 66.35538    362.6 1.181e+04 8.385e-10
 66.37135    361.8 1.173e+04 8.137e-10
 66.38136    363.0 1.113e+04 6.415e-10
 66.39190    362.3 1.104e+04 6.153e-10
 66.41192    361.8 1.083e+04 5.615e-10
 66.43195    361.5 1.056e+04 5.053e-10
 66.44459    361.4 1.033e+04 4.603e-10
 66.45460    362.4 1.068e+04 5.983e-10
 66.47199    362.5 1.044e+04 5.460e-10
 66.49202    362.6 1.038e+04 5.248e-10
 66.51204    362.8 1.038e+04 5.209e-10
 66.53207    363.1 1.038e+04 5.218e-10
 66.54382    363.4 1.039e+04 5.254e-10
 66.55383    364.4 1.075e+04 6.737e-10
 66.57212    364.7 1.077e+04 6.808e-10
 66.58343    365.0 1.077e+04 6.822e-10
 66.59344    365.8 1.070e+04 6.576e-10
 66.61216    366.1 1.072e+04 6.673e-10
 66.63219    366.3 1.071e+04 6.698e-10
 66.64304    366.5 1.070e+04 6.659e-10
 66.65305    366.6 1.092e+04 7.428e-10
 66.67224    366.7 1.083e+04 6.999e-10
 66.69226    366.7 1.074e+04 6.589e-10
 66.71228    366.7 1.067e+04 6.246e-10
 66.73226    366.7 1.062e+04 5.985e-10
 66.75228    366.6 1.070e+04 6.067e-10
 66.77236    366.5 1.070e+04 6.017e-10
 66.78550    366.4 1.071e+04 6.008e-10
 66.79551    367.1 1.078e+04 6.360e-10
 66.81241    367.0 1.080e+04 6.443e-10
 66.83148    366.9 1.085e+04 6.607e-10
 66.84149    366.7 1.097e+04 7.217e-10
 66.85245    366.6 1.100e+04 7.462e-10
 66.87248    366.6 1.101e+04 7.580e-10
 66.89250    366.6 1.099e+04 7.549e-10
 66.91253    366.7 1.093e+04 7.412e-10
 66.93071    366.7 1.084e+04 7.215e-10
 66.94072    366.7 1.078e+04 6.880e-10
 66.95258    366.8 1.061e+04 6.353e-10
 66.97260    367.1 1.043e+04 5.851e-10
 66.98757    367.3 1.030e+04 5.574e-10
 66.99758    367.9 1.034e+04 5.549e-10
 67.01265    368.0 1.027e+04 5.449e-10
 67.02993    368.0 1.027e+04 5.480e-10
 67.03994    367.8 1.009e+04 4.686e-10
 67.05270    367.5 1.023e+04 5.199e-10
 67.07272    367.0 1.059e+04 6.551e-10
 67.09274    366.3 1.114e+04 8.916e-10
 67.11277    365.7 1.174e+04 1.249e-09
 67.12916    365.3 1.230e+04 1.687e-09
 67.13917    364.2 1.285e+04 2.146e-09
 67.15282    363.7 1.335e+04 2.667e-09
 67.17284    362.8 1.373e+04 2.937e-09
 67.18964    361.7 1.394e+04 2.989e-09
 67.19965    363.1 1.391e+04 2.984e-09
 67.21289    361.7 1.407e+04 3.003e-09
 67.22838    360.0 1.427e+04 3.061e-09
 67.23840    357.4 1.418e+04 2.928e-09
 67.25294    355.2 1.433e+04 3.006e-09
 67.27296    353.1 1.494e+04 3.394e-09
 67.29299    351.1 1.594e+04 4.047e-09
 67.31301    348.8 1.686e+04 4.267e-09
 67.32761    345.9 1.726e+04 4.001e-09
 67.33762    344.2 1.314e+04 2.004e-09
 67.35306    340.2 1.298e+04 1.632e-09
 67.37308    335.4 1.298e+04 1.476e-09
 67.39170    330.7 1.296e+04 1.525e-09
 67.40172    332.8 1.399e+04 1.988e-09
 67.41313    328.6 1.386e+04 1.965e-09
 67.42684    325.4 1.358e+04 1.883e-09
 67.43685    326.6 1.157e+04 1.122e-09
 67.45318    324.1 1.126e+04 1.010e-09
 67.47320    322.1 1.088e+04 8.302e-10
 67.49323    320.3 1.045e+04 7.821e-10
 67.51325    318.6 1.059e+04 7.791e-10
 67.52606    317.3 1.069e+04 7.795e-10
 67.53607    318.7 1.009e+04 6.053e-10
 67.55330    317.7 1.022e+04 6.337e-10
 67.57333    317.2 1.041e+04 7.012e-10
 67.59335    316.9 1.070e+04 8.208e-10
 67.60379    316.6 1.113e+04 9.980e-10
 67.61380    317.0 1.132e+04 1.082e-09
 67.62529    316.6 1.177e+04 1.289e-09
 67.63530    317.6 1.140e+04 1.134e-09
 67.65342    317.0 1.202e+04 1.437e-09
 67.67345    316.3 1.266e+04 1.831e-09
 67.69347    315.5 1.327e+04 2.333e-09
 67.71349    314.7 1.396e+04 2.916e-09
 67.72451    313.9 1.450e+04 3.439e-09
 67.73452    314.7 1.455e+04 3.611e-09
 67.75354    313.7 1.500e+04 3.837e-09
 67.77357    312.4 1.504e+04 3.826e-09
 67.79359    310.9 1.501e+04 3.707e-09
 67.80585    309.5 1.477e+04 3.344e-09
 67.81587    309.6 1.469e+04 3.267e-09
 67.82374    308.3 1.433e+04 2.899e-09
 67.83375    309.0 1.452e+04 3.023e-09
 67.85366    307.7 1.409e+04 2.646e-09
 67.87369    306.5 1.373e+04 2.396e-09
 67.89371    305.7 1.349e+04 2.260e-09
 67.91295    305.1 1.336e+04 2.175e-09
 67.92296    305.5 1.334e+04 2.155e-09
 67.93376    305.3 1.325e+04 2.080e-09
 67.95379    305.4 1.311e+04 1.964e-09
 67.97381    305.5 1.287e+04 1.745e-09
 67.99383    305.6 1.251e+04 1.451e-09
 68.00792    305.7 1.206e+04 1.144e-09
 68.01625    305.0 1.200e+04 1.108e-09
 68.02219    305.4 1.221e+04 1.200e-09
 68.03388    305.4 1.173e+04 9.313e-10
 68.05391    305.2 1.123e+04 7.121e-10
 68.07393    305.0 1.081e+04 5.603e-10
 68.09395    304.9 1.056e+04 4.809e-10
 68.11140    304.9 1.047e+04 4.628e-10
 68.12142    305.3 1.059e+04 4.844e-10
 68.13400    305.4 1.054e+04 4.765e-10
 68.15403    306.0 1.054e+04 4.788e-10
 68.17405    306.6 1.059e+04 4.949e-10
 68.19408    307.4 1.074e+04 5.364e-10
 68.20999    308.3 1.095e+04 5.989e-10
 68.21653    307.2 1.117e+04 6.706e-10
 68.22064    307.6 1.122e+04 6.923e-10
 68.23412    308.7 1.145e+04 7.970e-10
 68.25415    309.3 1.170e+04 9.719e-10
 68.27417    309.2 1.273e+04 1.384e-09
 68.29420    308.8 1.460e+04 2.304e-09
 68.30985    307.5 1.603e+04 3.579e-09
 68.31987    308.9 1.621e+04 3.691e-09
 68.32919    307.5 1.698e+04 4.792e-09
 68.33915    306.7 1.790e+04 6.421e-09
 68.34917    305.9 1.896e+04 9.383e-09
 68.35918    305.0 1.992e+04 1.406e-08
 68.36438    304.2 2.081e+04 2.240e-08
 68.36938    304.9 2.079e+04 2.185e-08
 68.37920    304.5 2.143e+04 3.639e-08
 68.38921    304.2 2.197e+04 5.720e-08
 68.39923    303.6 2.265e+04 7.703e-08
 68.40898    302.3 2.373e+04 7.957e-08
 68.41399    303.5 2.386e+04 7.893e-08
 68.41697    300.9 2.452e+04 7.275e-08
 68.42197    296.5 2.656e+04 2.559e-08
 68.42926    290.2 2.985e+04 1.526e-08
 68.43927    281.9 3.065e+04 8.564e-09
 68.44929    270.9 2.451e+04 7.199e-09
 68.45860    266.6 2.074e+04 7.465e-09
 68.46360    264.5 2.015e+04 8.018e-09
 68.47437    259.9 1.914e+04 8.074e-09
 68.49444    256.4 1.830e+04 7.862e-09
 68.50831    254.1 1.802e+04 5.840e-09
 68.51832    254.2 1.910e+04 8.155e-09
 68.53449    251.7 1.817e+04 4.143e-09
 68.55451    247.9 1.634e+04 1.381e-09
 68.57454    242.7 1.328e+04 5.087e-10
 68.59456    239.1 1.145e+04 3.344e-10
 68.60753    238.6 1.137e+04 3.264e-10
 68.61709    235.6 1.086e+04 2.949e-10
 68.62414    233.3 1.070e+04 2.862e-10
 68.64472    232.9 1.043e+04 2.549e-10
 68.68486    233.0 1.011e+04 2.369e-10
 68.70695    234.2 9.963e+03 2.250e-10
 68.71687    233.6 1.006e+04 2.423e-10
 68.73473    234.1 1.005e+04 2.408e-10
 68.75475    235.1 1.001e+04 2.356e-10
 68.77478    235.8 1.001e+04 2.355e-10
 68.79480    236.7 9.998e+03 2.334e-10
 68.80598    237.4 1.001e+04 2.342e-10
 68.81600    236.9 1.094e+04 3.281e-10
 68.82621    237.6 1.104e+04 3.455e-10
 68.83622    236.7 1.123e+04 3.926e-10
 68.85487    237.3 1.133e+04 4.256e-10
 68.87490    238.0 1.144e+04 4.756e-10
 68.89492    238.5 1.159e+04 5.564e-10
 68.90521    239.0 1.189e+04 6.716e-10
 68.91522    236.0 1.499e+04 2.084e-09
 68.93497    236.5 1.524e+04 2.371e-09
 68.95500    237.1 1.548e+04 2.679e-09
 68.97502    237.8 1.568e+04 2.984e-09
 68.99442    238.5 1.583e+04 3.261e-09
 69.00443    236.0 1.678e+04 4.060e-09
 69.01507    236.8 1.651e+04 3.810e-09
 69.02828    237.7 1.625e+04 3.616e-09
 69.03829    236.8 1.599e+04 3.442e-09
 69.05512    237.7 1.579e+04 3.282e-09
 69.07514    238.5 1.559e+04 3.135e-09
 69.09365    239.3 1.540e+04 2.973e-09
 69.10366    237.7 1.464e+04 2.129e-09
 69.11519    238.5 1.429e+04 1.889e-09
 69.13521    239.4 1.400e+04 1.731e-09
 69.15524    240.2 1.370e+04 1.582e-09
 69.17526    240.9 1.349e+04 1.487e-09
 69.20540    241.3 1.271e+04 1.161e-09
 69.24554    242.8 1.225e+04 1.004e-09
 69.28228    244.5 1.176e+04 8.337e-10
 69.30231    244.1 1.123e+04 6.850e-10
 69.32564    246.4 1.101e+04 6.244e-10
 69.36569    248.9 1.073e+04 5.310e-10
 69.40573    251.6 1.043e+04 4.462e-10
 69.43261    254.3 1.018e+04 3.798e-10
 69.45263    253.2 1.014e+04 3.771e-10
 69.48073    256.1 9.962e+03 3.348e-10
 69.50076    256.6 9.955e+03 3.338e-10
 69.52588    259.6 9.858e+03 3.089e-10
 69.56593    262.7 9.790e+03 2.865e-10
 69.60598    265.8 9.729e+03 2.615e-10
 69.64603    268.9 9.649e+03 2.340e-10
 69.67919    271.9 9.545e+03 2.067e-10
 69.69921    272.8 9.760e+03 2.383e-10
 69.72612    275.8 9.701e+03 2.135e-10
 69.76617    278.9 9.650e+03 1.950e-10
 69.80622    281.9 9.618e+03 1.871e-10
 69.83674    284.9 9.647e+03 1.888e-10
 69.85677    284.0 9.631e+03 1.885e-10
 69.87764    287.2 9.717e+03 1.959e-10
 69.89766    287.9 9.882e+03 2.130e-10
 69.92636    291.2 9.955e+03 2.202e-10
 69.96641    294.5 1.013e+04 2.381e-10
 70.00646    297.8 1.037e+04 2.641e-10
 70.04651    301.0 1.068e+04 2.960e-10
 70.07609    304.4 1.100e+04 3.300e-10
 70.09611    304.4 1.102e+04 3.338e-10
 70.12661    306.5 1.114e+04 3.492e-10
 70.15654    306.9 1.111e+04 3.527e-10
 70.17512    308.5 1.109e+04 3.616e-10
 70.18513    308.2 1.105e+04 3.482e-10
 70.19650    311.1 1.102e+04 3.643e-10
 70.21652    314.3 1.104e+04 4.232e-10
 70.23654    317.2 1.130e+04 5.112e-10
 70.25070    319.6 1.162e+04 6.061e-10
 70.26071    319.9 1.142e+04 5.350e-10
 70.27434    322.1 1.171e+04 6.031e-10
 70.28436    322.5 1.166e+04 5.952e-10
 70.29662    324.6 1.187e+04 6.410e-10
 70.31664    326.5 1.201e+04 6.767e-10
 70.33666    328.6 1.212e+04 7.090e-10
 70.35669    330.6 1.223e+04 7.420e-10
 70.37357    332.6 1.234e+04 7.772e-10
 70.38358    332.9 1.234e+04 7.768e-10
 70.39674    334.8 1.249e+04 8.210e-10
 70.41676    336.7 1.263e+04 8.658e-10
 70.43679    338.6 1.279e+04 9.102e-10
 70.45277    340.2 1.295e+04 9.495e-10
 70.46278    341.8 1.303e+04 9.271e-10
 70.47280    343.4 1.325e+04 9.913e-10
 70.48281    342.9 1.345e+04 1.074e-09
 70.49686    344.1 1.369e+04 1.143e-09
 70.51688    344.9 1.388e+04 1.184e-09
 70.53691    345.0 1.399e+04 1.189e-09
 70.55693    344.9 1.398e+04 1.167e-09
 70.57202    344.2 1.394e+04 1.106e-09
 70.58203    342.9 1.488e+04 1.523e-09
 70.59698    341.6 1.491e+04 1.505e-09
 70.61700    339.9 1.493e+04 1.493e-09
 70.63703    338.2 1.507e+04 1.535e-09
 70.65483    335.9 1.577e+04 1.695e-09
 70.66485    331.7 1.790e+04 2.618e-09
 70.67120    329.8 1.803e+04 2.758e-09
 70.67616    329.0 1.827e+04 3.239e-09
 70.68198    328.0 1.840e+04 3.341e-09
 70.69200    327.0 1.847e+04 3.525e-09
 70.70201    326.3 1.843e+04 3.722e-09
 70.71202    325.8 1.869e+04 3.900e-09
 70.72076    324.6 2.066e+04 4.307e-09
 70.72577    318.5 2.963e+04 7.130e-09
 70.73205    306.5 4.038e+04 2.266e-08
 70.74206    292.6 3.905e+04 1.076e-07
 70.75207    280.7 3.367e+04 3.162e-07
 70.76078    271.5 3.165e+04 3.891e-07
 70.76578    260.5 3.121e+04 2.575e-07
 70.77038    255.4 3.702e+04 7.610e-08
 70.77538    247.2 5.934e+04 6.499e-09
 70.78211    239.6 1.018e+05 5.735e-10
 70.79212    233.1 1.026e+05 3.946e-10
 70.80213    229.0 1.050e+05 2.410e-10
 70.81720    220.0 5.532e+04 3.651e-10
 70.83727    215.2 1.539e+04 8.934e-10
 70.85690    216.0 1.421e+04 9.489e-10
 70.86691    212.5 1.405e+04 8.400e-10
 70.86970    214.0 1.414e+04 8.228e-10
 70.88982    215.8 1.375e+04 6.177e-10
 70.92757    216.3 1.326e+04 5.164e-10
 70.96762    217.1 1.273e+04 4.291e-10
 71.00767    218.0 1.228e+04 3.696e-10
 71.04772    219.0 1.197e+04 3.572e-10
 71.06835    220.1 1.194e+04 3.634e-10
 71.06978    219.4 1.183e+04 3.510e-10
 71.08920    217.6 1.171e+04 3.322e-10
 71.12782    219.1 1.180e+04 3.468e-10
 71.16786    220.7 1.192e+04 3.528e-10
 71.20791    221.8 1.215e+04 3.631e-10
 71.24677    221.7 1.244e+04 3.607e-10
 71.26680    221.3 1.253e+04 3.758e-10
 71.28801    220.2 1.277e+04 3.799e-10
 71.31795    219.3 1.270e+04 3.724e-10
 71.33787    219.8 1.249e+04 3.565e-10
 71.35582    221.0 1.222e+04 3.436e-10
 71.36583    222.5 1.263e+04 4.227e-10
 71.37792    224.1 1.278e+04 4.566e-10
 71.39795    225.4 1.291e+04 4.898e-10
 71.41797    226.6 1.302e+04 5.182e-10
 71.43800    227.8 1.310e+04 5.392e-10
 71.45504    228.9 1.315e+04 5.525e-10
 71.46505    229.6 1.439e+04 8.204e-10
 71.47312    230.7 1.447e+04 8.368e-10
 71.48313    230.0 1.433e+04 8.389e-10
 71.49807    231.2 1.437e+04 8.467e-10
 71.51809    232.4 1.441e+04 8.494e-10
 71.53812    233.7 1.445e+04 8.474e-10
 71.55427    235.0 1.445e+04 8.443e-10
 71.56428    235.2 1.612e+04 1.445e-09
 71.57817    236.5 1.625e+04 1.482e-09
 71.59819    237.5 1.633e+04 1.536e-09
 71.61821    238.3 1.678e+04 1.676e-09
 71.63824    238.6 1.774e+04 2.046e-09
 71.65349    238.7 1.935e+04 2.633e-09
 71.66350    240.1 1.887e+04 2.994e-09
 71.67519    240.3 2.070e+04 3.827e-09
 71.68515    239.7 2.084e+04 3.852e-09
 71.69321    236.4 3.756e+04 3.404e-09
 71.70301    222.4 6.751e+04 7.588e-09
 71.70801    236.6 4.337e+04 3.770e-09
 71.71323    224.8 6.623e+04 8.234e-09
 71.72324    216.3 5.205e+04 4.865e-08
 71.73029    210.4 3.797e+04 2.826e-07
 71.73263    215.0 4.623e+04 9.998e-08
 71.73307    214.8 4.574e+04 1.061e-07
 71.73571    210.9 3.424e+04 5.063e-07
 71.74072    201.3 2.591e+04 2.476e-06
 71.74572    185.4 2.382e+04 4.895e-06
 71.75073    161.5 3.299e+04 1.528e-06
 71.75507    130.8 6.968e+04 3.920e-08
 71.75758    154.0 3.380e+04 1.570e-06
 71.76074    113.1 7.765e+04 2.534e-08
 71.76575     67.1 6.668e+04 8.122e-09
 71.77075     41.6 3.765e+04 1.476e-08
 71.77576     39.4 3.773e+04 1.519e-08
 71.78111     28.6 4.278e+04 1.566e-08
 71.78614     27.3 4.214e+04 1.617e-08
 71.79333     12.1 3.987e+04 1.349e-08
 71.80223      2.9 3.607e+04 1.366e-08
 71.80724      8.2 6.111e+04 7.322e-09
 71.81335     -2.5 6.462e+04 5.639e-09
 71.82336    -11.5 6.710e+04 5.036e-09
 71.83338     -5.1 6.414e+04 3.810e-09
 71.84339    -13.6 6.719e+04 3.217e-09
 71.85189    -49.0 2.427e+04 8.977e-09
 71.86196    -52.2 2.990e+04 5.519e-09
 71.87726    -59.3 2.243e+04 8.229e-09
 71.88727    -61.7 2.243e+04 8.397e-09
 71.89855    -65.7 2.265e+04 8.658e-09
 71.91858    -69.9 2.223e+04 7.380e-09
 71.93860    -74.6 2.136e+04 5.007e-09
 71.95117    -80.4 2.018e+04 3.414e-09
 71.96118    -81.3 2.017e+04 3.463e-09
 71.97865    -86.8 1.892e+04 2.721e-09
 71.99867    -90.4 1.815e+04 2.476e-09
 72.01870    -92.4 1.792e+04 2.415e-09
 72.03872    -96.2 1.890e+04 2.405e-09
 72.05040   -114.5 4.078e+04 2.166e-09
 72.06041   -119.0 4.098e+04 2.710e-09
 72.07372   -138.5 4.115e+04 8.471e-09
 72.08368   -146.6 3.301e+04 2.976e-08
 72.08924   -152.8 2.784e+04 8.488e-08
 72.09425   -154.1 2.780e+04 7.314e-08
 72.09991   -159.6 2.702e+04 1.131e-07
 72.10492   -160.6 2.804e+04 8.526e-08
 72.11371   -168.4 2.824e+04 8.898e-08
 72.12373   -177.9 2.903e+04 6.682e-08
 72.13374   -189.4 2.800e+04 2.891e-08
 72.14375   -201.1 2.374e+04 1.008e-08
 72.14952   -209.5 1.979e+04 4.694e-09
 72.15453   -209.2 1.932e+04 4.457e-09
 72.16378   -212.4 1.843e+04 3.381e-09
 72.17884   -215.0 1.808e+04 2.763e-09
 72.19892   -220.2 1.683e+04 1.956e-09
 72.21894   -225.9 1.476e+04 1.257e-09
 72.23883   -229.5 1.363e+04 9.303e-10
 72.24885   -229.1 1.374e+04 9.232e-10
 72.25899   -231.2 1.353e+04 8.323e-10
 72.27901   -233.0 1.343e+04 7.960e-10
 72.29141   -234.6 1.332e+04 7.781e-10
 72.30142   -234.2 1.275e+04 6.194e-10
 72.31906   -235.5 1.268e+04 6.178e-10
 72.33806   -236.6 1.261e+04 6.258e-10
 72.34807   -236.7 1.289e+04 7.358e-10
 72.35911   -238.1 1.304e+04 8.188e-10
 72.37913   -240.1 1.371e+04 9.735e-10
 72.39916   -242.8 1.490e+04 1.289e-09
 72.41918   -245.9 1.631e+04 1.886e-09
 72.43729   -249.0 1.754e+04 2.840e-09
 72.44730   -249.9 1.760e+04 2.981e-09
 72.45923   -252.7 1.827e+04 3.922e-09
 72.47925   -255.1 1.857e+04 4.550e-09
 72.49347   -257.4 1.861e+04 4.696e-09
 72.50349   -256.8 1.859e+04 4.715e-09
 72.51930   -259.1 1.849e+04 4.700e-09
 72.53651   -261.0 1.791e+04 4.083e-09
 72.54652   -261.8 1.749e+04 3.402e-09
 72.55935   -264.0 1.673e+04 2.624e-09
 72.57938   -266.5 1.618e+04 2.190e-09
 72.59940   -269.1 1.604e+04 2.093e-09
 72.61942   -271.7 1.608e+04 2.117e-09
 72.63574   -274.1 1.672e+04 2.644e-09
 72.64575   -275.4 1.688e+04 2.753e-09
 72.65947   -277.1 1.767e+04 3.768e-09
 72.67950   -279.0 1.810e+04 4.504e-09
 72.69554   -281.2 1.818e+04 4.674e-09
 72.70555   -281.3 1.821e+04 4.746e-09
 72.71954   -283.5 1.787e+04 4.541e-09
 72.73496   -285.5 1.699e+04 3.455e-09
 72.74498   -286.7 1.660e+04 3.078e-09
 72.75959   -288.9 1.553e+04 2.125e-09
 72.77962   -291.1 1.442e+04 1.491e-09
 72.79964   -292.7 1.353e+04 1.132e-09
 72.81967   -293.6 1.295e+04 9.385e-10
 72.83419   -293.9 1.264e+04 8.379e-10
 72.84420   -294.1 1.277e+04 8.910e-10
 72.85971   -294.2 1.257e+04 8.272e-10
 72.87974   -294.1 1.240e+04 7.751e-10
 72.89761   -293.7 1.224e+04 7.315e-10
 72.90762   -293.4 1.225e+04 7.531e-10
 72.91979   -292.9 1.216e+04 7.298e-10
 72.93341   -292.4 1.210e+04 7.112e-10
 72.94343   -292.2 1.208e+04 7.023e-10
 72.95983   -291.7 1.203e+04 6.817e-10
 72.97986   -291.2 1.197e+04 6.595e-10
 72.99988   -290.7 1.190e+04 6.368e-10
 73.01991   -290.3 1.184e+04 6.163e-10
 73.03264   -289.9 1.179e+04 6.005e-10
 73.04265   -289.5 1.173e+04 5.653e-10
 73.05996   -289.0 1.172e+04 5.628e-10
 73.07998   -288.7 1.172e+04 5.627e-10
 73.09968   -288.6 1.172e+04 5.715e-10
 73.10969   -288.2 1.189e+04 6.427e-10
 73.12003   -288.2 1.197e+04 7.163e-10
 73.13187   -288.6 1.259e+04 8.706e-10
 73.14188   -288.9 1.279e+04 9.223e-10
 73.16008   -289.6 1.402e+04 1.380e-09
 73.18010   -290.3 1.524e+04 2.116e-09
 73.20013   -290.9 1.623e+04 3.047e-09
 73.22015   -291.8 1.685e+04 3.893e-09
 73.23109   -293.0 1.705e+04 4.285e-09
 73.24110   -292.6 1.832e+04 6.497e-09
 73.26020   -294.0 1.835e+04 6.632e-09
 73.28022   -295.1 1.797e+04 6.425e-09
 73.30025   -295.5 1.709e+04 5.322e-09
 73.31176   -295.5 1.611e+04 4.080e-09
 73.32177   -294.4 1.598e+04 3.889e-09
 73.34029   -294.1 1.649e+04 4.569e-09
 73.36032   -294.1 1.599e+04 3.801e-09
 73.38034   -293.9 1.563e+04 3.287e-09
 73.40037   -293.8 1.540e+04 2.875e-09
 73.41953   -293.1 1.513e+04 2.492e-09
 73.42954   -292.7 1.650e+04 3.717e-09
 73.44042   -291.8 1.614e+04 3.137e-09
 73.46044   -290.8 1.610e+04 2.782e-09
 73.48046   -289.8 1.615e+04 2.670e-09
 73.50049   -288.9 1.656e+04 2.628e-09
 73.51383   -288.0 1.732e+04 2.886e-09
 73.52208   -286.7 1.607e+04 2.503e-09
 73.52872   -285.8 1.669e+04 2.974e-09
 73.53543   -285.3 1.706e+04 2.992e-09
 73.54544   -285.0 1.730e+04 3.055e-09
 73.55546   -284.7 1.820e+04 3.480e-09
 73.56547   -285.2 1.929e+04 4.251e-09
 73.57328   -286.2 2.091e+04 5.521e-09
 73.57828   -289.3 2.657e+04 8.499e-09
 73.58549   -291.4 2.991e+04 1.511e-08
 73.59551   -293.8 3.096e+04 2.970e-08
 73.60552   -296.4 3.025e+04 6.008e-08
 73.61476   -299.4 2.900e+04 1.165e-07
 73.61977   -300.4 2.873e+04 7.765e-08
 73.62289   -303.5 2.817e+04 1.269e-07
 73.62790   -307.9 2.687e+04 1.927e-07
 73.63555   -312.5 2.698e+04 2.005e-07
 73.64557   -317.8 2.764e+04 1.896e-07
 73.65558   -323.0 2.803e+04 1.675e-07
 73.66559   -327.3 2.864e+04 1.376e-07
 73.67250   -330.4 2.921e+04 1.040e-07
 73.67751   -332.3 3.114e+04 3.329e-08
 73.68561   -333.9 3.116e+04 2.190e-08
 73.69563   -334.7 3.056e+04 1.463e-08
 73.70564   -335.0 2.908e+04 1.025e-08
 73.71565   -335.1 2.685e+04 7.847e-09
 73.72080   -334.9 2.438e+04 6.936e-09
 73.72226   -332.7 2.332e+04 7.593e-09
 73.72712   -332.9 1.902e+04 6.034e-09
 73.74073   -331.9 1.850e+04 5.612e-09
 73.76080   -330.2 1.761e+04 4.928e-09
 73.78083   -328.4 1.678e+04 4.471e-09
 73.80085   -326.4 1.626e+04 4.275e-09
 73.81643   -324.4 1.587e+04 4.154e-09
 73.82645   -323.8 1.516e+04 3.220e-09
 73.84090   -322.0 1.508e+04 3.211e-09
 73.86092   -320.2 1.500e+04 3.216e-09
 73.88095   -318.4 1.490e+04 3.228e-09
 73.90097   -316.7 1.476e+04 3.214e-09
 73.91566   -315.0 1.461e+04 3.124e-09
 73.92264   -314.7 1.447e+04 2.787e-09
 73.92798   -314.4 1.456e+04 2.855e-09
 73.94102   -312.9 1.445e+04 2.830e-09
 73.96104   -311.4 1.430e+04 2.716e-09
 73.98107   -309.9 1.412e+04 2.543e-09
 74.00109   -308.4 1.390e+04 2.343e-09
 74.01489   -307.0 1.367e+04 2.136e-09
 74.02490   -307.0 1.369e+04 2.141e-09
 74.04114   -305.6 1.347e+04 1.960e-09
 74.06117   -304.2 1.324e+04 1.778e-09
 74.08119   -302.7 1.299e+04 1.599e-09
 74.10121   -301.2 1.273e+04 1.426e-09
 74.11411   -299.8 1.247e+04 1.260e-09
 74.12292   -299.8 1.250e+04 1.262e-09
 74.13004   -299.6 1.263e+04 1.373e-09
 74.14126   -298.1 1.239e+04 1.223e-09
 74.16129   -296.6 1.215e+04 1.080e-09
 74.18131   -295.2 1.187e+04 9.476e-10
 74.20134   -293.7 1.157e+04 8.241e-10
 74.21334   -292.1 1.125e+04 7.069e-10
 74.22335   -292.1 1.126e+04 7.064e-10
 74.24138   -290.3 1.095e+04 5.980e-10
 74.26141   -288.3 1.067e+04 5.008e-10
 74.28143   -286.4 1.047e+04 4.269e-10
 74.30146   -285.0 1.037e+04 3.867e-10
 74.32220   -284.2 1.031e+04 3.604e-10
 74.34222   -281.9 1.030e+04 3.868e-10
 74.37164   -280.8 1.021e+04 3.661e-10
 74.40197   -277.8 9.899e+03 3.204e-10
 74.42200   -277.4 9.990e+03 3.430e-10
 74.45183   -274.4 9.763e+03 3.049e-10
 74.49188   -271.7 9.542e+03 2.691e-10
 74.53193   -268.8 9.292e+03 2.349e-10
 74.57198   -265.9 9.045e+03 2.042e-10
 74.60042   -262.9 8.803e+03 1.783e-10
 74.62045   -262.5 9.022e+03 1.976e-10
 74.65207   -259.5 8.786e+03 1.697e-10
 74.69212   -256.5 8.611e+03 1.514e-10
 74.72643   -253.4 8.523e+03 1.430e-10
 74.74646   -252.9 8.729e+03 1.661e-10
 74.77222   -249.9 8.543e+03 1.463e-10
 74.79887   -246.9 8.460e+03 1.375e-10
 74.81890   -246.5 8.795e+03 1.713e-10
 74.85232   -243.6 8.739e+03 1.648e-10
 74.89237   -240.8 8.741e+03 1.656e-10
 74.93241   -238.3 8.964e+03 1.988e-10
 74.97246   -236.0 9.391e+03 2.704e-10
 74.99733   -233.9 1.004e+04 4.161e-10
 75.01735   -234.1 1.078e+04 6.360e-10
 75.05256   -232.4 1.148e+04 9.413e-10
 75.09261   -231.2 1.212e+04 1.282e-09
 75.13057   -230.3 1.263e+04 1.600e-09
 75.15050   -229.1 1.306e+04 2.014e-09
 75.16250   -228.5 1.332e+04 2.297e-09
 75.18252   -227.6 1.367e+04 2.644e-09
 75.19558   -227.1 1.402e+04 2.883e-09
 75.20559   -227.4 1.424e+04 3.102e-09
 75.22257   -227.3 1.438e+04 3.120e-09
 75.24259   -227.5 1.456e+04 3.029e-09
 75.26262   -228.6 1.457e+04 2.834e-09
 75.28264   -230.3 1.446e+04 2.494e-09
 75.29481   -232.1 1.393e+04 2.104e-09
 75.30482   -232.4 1.373e+04 2.178e-09
 75.32269   -233.7 1.315e+04 1.795e-09
 75.34245   -234.6 1.255e+04 1.472e-09
 75.35247   -233.8 1.349e+04 1.889e-09
 75.36274   -234.7 1.255e+04 1.371e-09
 75.38276   -235.1 1.184e+04 1.042e-09
 75.39403   -235.1 1.146e+04 8.500e-10
 75.41415   -235.0 1.152e+04 8.107e-10
 75.45304   -234.2 1.074e+04 5.046e-10
 75.49309   -233.3 1.024e+04 3.385e-10
 75.53314   -232.7 9.922e+03 2.527e-10
 75.55473   -232.5 9.853e+03 2.297e-10
 75.57422   -231.8 1.006e+04 2.561e-10
 75.59268   -231.5 1.012e+04 2.690e-10
 75.61324   -231.6 1.013e+04 2.600e-10
 75.65328   -231.8 1.017e+04 2.579e-10
 75.69333   -232.1 1.039e+04 2.697e-10
 75.73338   -232.5 1.058e+04 2.931e-10
 75.77111   -233.1 1.071e+04 3.192e-10
 75.79103   -232.8 1.073e+04 3.352e-10
 75.80327   -233.3 1.080e+04 3.682e-10
 75.82330   -233.8 1.086e+04 4.150e-10
 75.84332   -234.1 1.093e+04 4.655e-10
 75.86334   -234.2 1.100e+04 5.066e-10
 75.88015   -234.2 1.104e+04 5.331e-10
 75.89016   -234.2 1.123e+04 6.018e-10
 75.90339   -234.3 1.123e+04 6.037e-10
 75.92342   -234.4 1.117e+04 5.873e-10
 75.94344   -234.6 1.109e+04 5.578e-10
 75.95867   -234.8 1.100e+04 5.252e-10
 75.96868   -235.1 1.128e+04 6.096e-10
 75.97938   -235.5 1.120e+04 5.815e-10
 75.98939   -235.4 1.119e+04 5.817e-10
 76.00351   -235.7 1.106e+04 5.322e-10
 76.02354   -236.0 1.096e+04 4.815e-10
 76.04356   -236.3 1.089e+04 4.335e-10
 76.06359   -236.5 1.085e+04 3.975e-10
 76.09372   -237.1 1.078e+04 3.646e-10
 76.13387   -237.2 1.060e+04 3.070e-10
 76.16801   -237.3 1.039e+04 2.497e-10
 76.18803   -237.2 1.028e+04 2.063e-10
 76.21396   -237.3 1.014e+04 1.791e-10
 76.25401   -237.3 1.011e+04 1.730e-10
 76.29406   -237.7 1.014e+04 1.730e-10
 76.33411   -239.6 1.086e+04 1.791e-10
 76.36300   -242.8 1.270e+04 3.384e-10
 76.37533   -247.7 1.350e+04 8.149e-10
 76.38649   -247.7 1.338e+04 9.342e-10
 76.41420   -249.7 1.350e+04 1.481e-09
 76.45425   -251.3 1.343e+04 1.654e-09
 76.49430   -252.8 1.309e+04 1.607e-09
 76.53435   -253.9 1.236e+04 1.273e-09
 76.56491   -254.7 1.158e+04 9.222e-10
 76.58494   -253.8 1.145e+04 8.114e-10
 76.61445   -253.5 1.109e+04 6.836e-10
 76.64438   -253.3 1.087e+04 6.208e-10
 76.66394   -252.8 1.072e+04 5.655e-10
 76.67396   -252.4 1.061e+04 5.323e-10
 76.68434   -251.6 1.045e+04 4.652e-10
 76.70436   -250.8 1.032e+04 4.049e-10
 76.72438   -250.1 1.025e+04 3.697e-10
 76.74441   -249.7 1.022e+04 3.572e-10
 76.76327   -249.6 1.015e+04 3.439e-10
 76.77589   -248.9 1.007e+04 3.039e-10
 76.78716   -250.2 1.030e+04 3.511e-10
 76.81469   -248.4 1.014e+04 3.401e-10
 76.85474   -246.4 1.006e+04 3.332e-10
 76.89479   -244.3 1.003e+04 3.349e-10
 76.93483   -242.3 1.000e+04 3.579e-10
 76.96182   -240.5 1.024e+04 4.468e-10
 76.98184   -239.6 9.946e+03 3.460e-10
 77.01493   -238.1 1.046e+04 5.015e-10
 77.05498   -236.8 1.127e+04 7.737e-10
 77.09503   -235.8 1.216e+04 1.209e-09
 77.12497   -235.1 1.284e+04 1.692e-09
 77.14489   -234.9 1.323e+04 2.035e-09
 77.16007   -234.6 1.365e+04 2.456e-09
 77.17008   -234.1 1.362e+04 2.368e-09
 77.18109   -233.9 1.393e+04 2.717e-09
 77.19111   -233.8 1.384e+04 2.744e-09
 77.20496   -233.7 1.403e+04 2.936e-09
 77.22499   -233.6 1.406e+04 2.970e-09
 77.24501   -233.4 1.401e+04 2.959e-09
 77.25930   -233.0 1.368e+04 2.744e-09
 77.26931   -232.4 1.358e+04 2.614e-09
 77.28506   -231.7 1.315e+04 2.275e-09
 77.30509   -230.9 1.268e+04 1.925e-09
 77.32511   -230.1 1.224e+04 1.616e-09
 77.34513   -229.1 1.183e+04 1.354e-09
 77.35852   -228.1 1.147e+04 1.144e-09
 77.36854   -227.4 1.132e+04 1.043e-09
 77.38316   -226.3 1.103e+04 8.999e-10
 77.39317   -225.6 1.101e+04 9.042e-10
 77.40521   -224.4 1.072e+04 7.782e-10
 77.42523   -223.5 1.055e+04 7.039e-10
 77.44526   -222.1 1.028e+04 6.233e-10
 77.45775   -220.6 1.008e+04 5.542e-10
 77.46776   -219.8 1.000e+04 5.149e-10
 77.48530   -218.3 9.897e+03 4.703e-10
 77.50533   -216.6 9.858e+03 4.411e-10
 77.52535   -215.4 9.871e+03 4.353e-10
 77.54538   -214.4 9.884e+03 4.344e-10
 77.55697   -213.1 9.936e+03 4.325e-10
 77.56699   -212.4 9.983e+03 4.199e-10
 77.58523   -211.6 1.013e+04 4.515e-10
 77.59534   -211.4 9.597e+03 3.568e-10
 77.61566   -209.1 9.620e+03 3.510e-10
 77.65570   -206.8 9.671e+03 3.553e-10
 77.69575   -204.6 9.683e+03 3.635e-10
 77.73560   -202.1 9.719e+03 3.848e-10
 77.75562   -200.7 9.835e+03 3.965e-10
 77.77585   -198.4 9.943e+03 4.335e-10
 77.81590   -196.1 1.002e+04 4.702e-10
 77.85595   -193.6 1.008e+04 5.094e-10
 77.89600   -191.2 1.016e+04 5.433e-10
 77.93405   -188.7 1.024e+04 5.755e-10
 77.95407   -187.7 1.052e+04 6.603e-10
 77.97609   -185.4 1.060e+04 6.952e-10
 77.99957   -183.1 1.068e+04 7.225e-10
 78.01960   -182.2 1.032e+04 5.956e-10
 78.05619   -180.0 1.051e+04 6.683e-10
 78.09624   -177.9 1.067e+04 7.245e-10
 78.13250   -175.9 1.080e+04 7.583e-10
 78.15252   -175.2 1.109e+04 8.600e-10
 78.17633   -173.5 1.118e+04 8.796e-10
 78.21638   -171.8 1.131e+04 9.102e-10
 78.25643   -170.3 1.138e+04 9.192e-10
 78.29648   -169.0 1.131e+04 8.651e-10
 78.33095   -167.7 1.119e+04 7.738e-10
 78.35098   -167.5 1.120e+04 7.770e-10
 78.37658   -166.2 1.078e+04 6.030e-10
 78.40371   -164.8 1.034e+04 4.752e-10
 78.42374   -163.8 1.093e+04 6.770e-10
 78.45667   -162.1 1.053e+04 5.342e-10
 78.49672   -160.5 1.032e+04 4.777e-10
 78.52940   -159.2 1.028e+04 4.682e-10
 78.54943   -158.7 1.001e+04 3.969e-10
 78.57682   -157.5 1.013e+04 4.342e-10
 78.61687   -156.8 1.024e+04 4.987e-10
 78.65691   -156.3 1.021e+04 5.224e-10
 78.69696   -155.8 1.006e+04 5.189e-10
 78.72785   -155.2 9.768e+03 4.659e-10
 78.74788   -154.8 1.024e+04 5.775e-10
 78.77706   -153.9 9.886e+03 4.676e-10
 78.80785   -152.9 9.373e+03 3.542e-10
 78.82787   -150.6 9.740e+03 3.882e-10
 78.85716   -149.6 9.143e+03 2.784e-10
 78.89721   -148.4 8.729e+03 2.240e-10
 78.92631   -146.8 8.448e+03 1.864e-10
 78.94633   -146.7 8.638e+03 2.160e-10
 78.97730   -144.6 8.466e+03 1.875e-10
 79.01735   -142.3 8.418e+03 1.782e-10
 79.05740   -140.4 8.423e+03 1.774e-10
 79.09745   -139.8 8.514e+03 1.821e-10
 79.12476   -140.4 8.927e+03 2.474e-10
 79.14478   -141.8 9.987e+03 4.339e-10
 79.17754   -143.9 1.214e+04 1.138e-09
 79.20748   -144.8 1.347e+04 2.204e-09
 79.22180   -146.0 1.441e+04 3.300e-09
 79.22819   -145.1 1.491e+04 3.963e-09
 79.23380   -145.6 1.480e+04 3.854e-09
 79.24743   -148.0 1.517e+04 4.211e-09
 79.26746   -151.2 1.521e+04 4.159e-09
 79.28748   -155.6 1.487e+04 3.202e-09
 79.30751   -161.6 1.389e+04 2.138e-09
 79.32301   -169.0 1.293e+04 1.660e-09
 79.33303   -171.8 1.243e+04 1.497e-09
 79.34755   -178.1 1.248e+04 1.504e-09
 79.36758   -183.5 1.375e+04 2.008e-09
 79.38760   -187.6 1.515e+04 3.105e-09
 79.40763   -190.9 1.613e+04 4.272e-09
 79.42224   -193.9 1.674e+04 5.037e-09
 79.42847   -194.6 1.584e+04 4.180e-09
 79.43388   -193.5 1.722e+04 6.089e-09
 79.44768   -196.1 1.734e+04 6.164e-09
 79.46770   -198.5 1.724e+04 5.716e-09
 79.48772   -200.7 1.648e+04 4.721e-09
 79.50775   -202.6 1.543e+04 3.732e-09
 79.52146   -204.0 1.438e+04 2.965e-09
 79.53148   -203.9 1.346e+04 2.538e-09
 79.54780   -204.6 1.306e+04 2.221e-09
 79.56782   -205.1 1.279e+04 1.959e-09
 79.58784   -205.3 1.255e+04 1.743e-09
 79.60787   -205.4 1.235e+04 1.580e-09
 79.62069   -205.6 1.220e+04 1.471e-09
 79.62875   -204.9 1.220e+04 1.461e-09
 79.63595   -205.2 1.222e+04 1.483e-09
 79.64792   -205.2 1.220e+04 1.474e-09
 79.66794   -205.2 1.220e+04 1.474e-09
 79.68797   -205.0 1.221e+04 1.478e-09
 79.70799   -204.8 1.222e+04 1.477e-09
 79.71992   -204.8 1.230e+04 1.477e-09
 79.72993   -203.8 1.241e+04 1.548e-09
 79.74804   -209.6 1.944e+04 1.285e-09
 79.76301   -228.4 5.151e+04 9.873e-10
 79.76943   -239.3 4.021e+04 8.098e-09
 79.77444   -240.3 4.063e+04 9.801e-09
 79.78298   -248.5 2.922e+04 8.516e-08
 79.79299   -253.7 2.494e+04 2.789e-07
 79.80301   -260.1 2.376e+04 4.131e-07
 79.81302   -267.5 2.362e+04 4.308e-07
 79.81904   -275.8 2.386e+04 2.842e-07
 79.82405   -278.2 2.407e+04 2.550e-07
 79.83292   -290.3 2.413e+04 6.700e-08
 79.83792   -294.1 2.341e+04 3.801e-08
 79.84306   -305.1 1.956e+04 7.135e-09
 79.85307   -309.3 1.670e+04 3.313e-09
 79.86308   -310.3 1.579e+04 2.674e-09
 79.86866   -310.6 1.551e+04 2.495e-09
 79.87366   -311.4 1.534e+04 2.517e-09
 79.88816   -311.0 1.508e+04 2.273e-09
 79.90823   -311.4 1.385e+04 1.680e-09
 79.91837   -311.8 1.243e+04 1.203e-09
 79.92838   -313.6 1.233e+04 1.248e-09
 79.94828   -312.8 1.158e+04 9.926e-10
 79.96830   -311.7 1.124e+04 8.682e-10
 79.98833   -310.4 1.099e+04 7.797e-10
 80.00758   -309.0 1.075e+04 6.983e-10
 80.01759   -309.7 1.061e+04 6.332e-10
 80.02838   -308.2 1.035e+04 5.271e-10
 80.04009   -306.6 1.015e+04 4.354e-10
 80.05010   -306.1 1.001e+04 3.660e-10
 80.06843   -304.8 9.935e+03 3.283e-10
 80.09689   -304.0 9.889e+03 3.046e-10
 80.11701   -304.9 9.709e+03 2.882e-10
 80.13871   -303.0 9.540e+03 2.525e-10
 80.17875   -300.7 9.300e+03 2.178e-10
 80.21880   -298.2 9.086e+03 1.918e-10
 80.25885   -295.6 8.927e+03 1.713e-10
 80.29544   -292.9 8.798e+03 1.552e-10
 80.31547   -293.3 8.951e+03 1.817e-10
 80.33895   -290.5 8.847e+03 1.669e-10
 80.37900   -287.8 8.772e+03 1.546e-10
 80.41904   -285.1 8.727e+03 1.458e-10
 80.44442   -282.5 8.714e+03 1.414e-10
 80.46444   -282.4 8.621e+03 1.207e-10
 80.49389   -279.9 8.634e+03 1.207e-10
 80.51392   -280.1 8.777e+03 1.381e-10
 80.53919   -277.8 8.827e+03 1.405e-10
 80.57924   -275.6 8.895e+03 1.456e-10
 80.61929   -273.6 8.964e+03 1.535e-10
 80.65933   -271.7 9.033e+03 1.640e-10
 80.69234   -269.9 9.105e+03 1.776e-10
 80.71237   -270.1 9.312e+03 2.121e-10
 80.73943   -268.3 9.398e+03 2.308e-10
 80.77948   -266.5 9.464e+03 2.469e-10
 80.81953   -264.7 9.505e+03 2.574e-10
 80.84856   -262.9 9.520e+03 2.615e-10
 80.86858   -262.2 9.426e+03 2.499e-10
 80.89080   -260.4 9.440e+03 2.520e-10
 80.91082   -260.6 9.524e+03 2.647e-10
 80.93967   -258.7 9.490e+03 2.515e-10
 80.97972   -257.0 9.468e+03 2.382e-10
 81.01977   -255.3 9.456e+03 2.256e-10
 81.05982   -253.7 9.448e+03 2.148e-10
 81.08925   -252.1 9.457e+03 2.087e-10
 81.10927   -252.5 9.730e+03 2.313e-10
 81.13992   -250.9 9.886e+03 2.467e-10
 81.17996   -249.3 1.024e+04 2.849e-10
 81.20990   -247.7 1.038e+04 3.225e-10
 81.22983   -247.3 1.077e+04 3.882e-10
 81.24985   -246.6 1.116e+04 4.801e-10
 81.26251   -246.2 1.154e+04 6.001e-10
 81.27262   -245.3 1.047e+04 3.461e-10
 81.28770   -243.7 1.093e+04 4.627e-10
 81.29761   -244.7 1.155e+04 6.783e-10
 81.30993   -244.4 1.192e+04 8.839e-10
 81.32995   -243.9 1.221e+04 1.141e-09
 81.34997   -243.3 1.239e+04 1.363e-09
 81.37000   -242.6 1.253e+04 1.596e-09
 81.38673   -242.0 1.261e+04 1.772e-09
 81.39674   -242.1 1.295e+04 2.182e-09
 81.41005   -241.5 1.296e+04 2.238e-09
 81.43007   -241.0 1.292e+04 2.231e-09
 81.45010   -240.4 1.273e+04 2.009e-09
 81.46458   -239.9 1.252e+04 1.775e-09
 81.47459   -239.1 1.258e+04 1.789e-09
 81.48595   -238.5 1.234e+04 1.600e-09
 81.49597   -239.1 1.260e+04 1.778e-09
 81.51017   -238.6 1.233e+04 1.563e-09
 81.53019   -238.0 1.200e+04 1.350e-09
 81.55022   -237.3 1.167e+04 1.157e-09
 81.57024   -236.5 1.135e+04 9.873e-10
 81.58518   -235.7 1.104e+04 8.408e-10
 81.59519   -235.9 1.104e+04 8.637e-10
 81.61029   -234.8 1.075e+04 7.199e-10
 81.63031   -233.6 1.048e+04 5.938e-10
 81.65034   -232.2 1.024e+04 4.914e-10
 81.66665   -231.1 1.006e+04 4.256e-10
 81.67666   -229.9 1.033e+04 5.349e-10
 81.68441   -228.5 1.018e+04 4.607e-10
 81.69442   -228.7 1.017e+04 4.476e-10
 81.71041   -227.7 1.007e+04 4.110e-10
 81.74054   -226.6 9.969e+03 3.766e-10
 81.78069   -223.8 9.616e+03 2.963e-10
 81.82074   -220.8 9.300e+03 2.308e-10
 81.86079   -218.0 9.118e+03 1.856e-10
 81.88305   -215.2 9.040e+03 1.567e-10
 81.90308   -215.4 8.904e+03 1.260e-10
 81.94088   -212.8 8.898e+03 1.126e-10
 81.98093   -210.4 8.902e+03 1.088e-10
 82.02098   -208.0 8.904e+03 1.082e-10
 82.06097   -205.8 8.968e+03 1.090e-10
 82.08144   -202.8 9.033e+03 1.092e-10
 82.10153   -203.2 8.949e+03 1.039e-10
 82.14113   -201.2 8.979e+03 1.048e-10
 82.18117   -199.3 8.989e+03 1.052e-10
 82.22122   -197.4 8.987e+03 1.049e-10
 82.25993   -195.4 8.960e+03 1.007e-10
 82.27996   -195.6 8.926e+03 1.013e-10
 82.30132   -193.5 8.871e+03 9.257e-11
 82.34137   -191.4 8.836e+03 8.437e-11
 82.38142   -189.1 8.843e+03 7.938e-11
 82.42146   -186.8 8.857e+03 7.824e-11
 82.45838   -184.7 8.871e+03 7.826e-11
 82.47841   -184.6 8.875e+03 7.894e-11
 82.48513   -183.3 8.983e+03 8.097e-11
 82.50515   -183.7 8.977e+03 7.654e-11
 82.54161   -183.3 9.634e+03 1.054e-10
 82.58166   -183.1 1.035e+04 2.340e-10
 82.62171   -182.8 1.103e+04 5.085e-10
 82.65683   -182.6 1.169e+04 9.226e-10
 82.67686   -182.8 1.179e+04 1.034e-09
 82.70180   -182.8 1.217e+04 1.333e-09
 82.74185   -183.2 1.230e+04 1.423e-09
 82.78190   -183.8 1.227e+04 1.405e-09
 82.82195   -184.2 1.192e+04 1.151e-09
 82.85529   -184.5 1.144e+04 8.884e-10
 82.87531   -184.7 1.119e+04 7.140e-10
 82.88926   -184.7 1.110e+04 6.613e-10
 82.90929   -183.5 1.098e+04 6.688e-10
 82.94209   -183.3 1.090e+04 6.331e-10
 82.98214   -182.6 1.078e+04 6.064e-10
 83.02219   -181.3 1.058e+04 5.577e-10
 83.05374   -179.5 1.032e+04 4.873e-10
 83.07376   -179.1 1.046e+04 5.155e-10
 83.10229   -176.8 1.020e+04 4.111e-10
 83.14234   -174.6 9.986e+03 3.185e-10
 83.18238   -172.4 9.830e+03 2.481e-10
 83.22243   -170.1 9.710e+03 2.053e-10
 83.25219   -167.8 9.700e+03 1.856e-10
 83.27221   -167.7 9.984e+03 2.151e-10
 83.29340   -165.4 9.993e+03 2.140e-10
 83.31342   -164.2 9.736e+03 1.940e-10
 83.34258   -161.9 9.765e+03 1.914e-10
 83.38263   -159.7 9.917e+03 2.047e-10
 83.42267   -157.5 1.018e+04 2.442e-10
 83.45064   -155.4 1.044e+04 3.060e-10
 83.47066   -155.2 1.045e+04 3.718e-10
 83.50277   -153.0 1.068e+04 4.591e-10
 83.54282   -151.0 1.097e+04 5.685e-10
 83.58287   -148.9 1.130e+04 7.020e-10
 83.62292   -146.9 1.163e+04 8.450e-10
 83.64909   -145.2 1.195e+04 9.807e-10
 83.66912   -145.6 1.195e+04 9.338e-10
 83.69754   -145.3 1.246e+04 1.127e-09
 83.71756   -144.4 1.222e+04 1.056e-09
 83.73295   -144.7 1.279e+04 1.308e-09
 83.74812   -145.9 1.378e+04 1.815e-09
 83.75813   -146.3 1.382e+04 1.904e-09
 83.77290   -147.5 1.489e+04 2.955e-09
 83.79293   -148.2 1.606e+04 5.164e-09
 83.81295   -148.8 1.688e+04 7.703e-09
 83.83297   -149.9 1.720e+04 8.996e-09
 83.84735   -151.2 1.715e+04 9.089e-09
 83.85736   -150.8 1.553e+04 5.301e-09
 83.87302   -151.5 1.490e+04 3.805e-09
 83.89305   -152.4 1.381e+04 2.083e-09
 83.90942   -154.0 1.253e+04 1.093e-09
 83.91943   -154.6 1.234e+04 1.063e-09
 83.93310   -156.3 1.177e+04 7.440e-10
 83.94657   -156.9 1.167e+04 6.845e-10
 83.95659   -156.8 1.168e+04 6.740e-10
 83.98325   -157.3 1.175e+04 6.867e-10
 84.02340   -157.1 1.204e+04 8.389e-10
 84.04599   -156.5 1.243e+04 1.105e-09
 84.06602   -154.6 1.187e+04 7.431e-10
 84.10167   -154.1 1.214e+04 9.527e-10
 84.12170   -155.8 1.225e+04 1.175e-09
 84.14355   -155.0 1.224e+04 1.188e-09
 84.18359   -153.9 1.192e+04 1.041e-09
 84.22364   -152.6 1.140e+04 7.624e-10
 84.24445   -151.0 1.087e+04 5.297e-10
 84.26447   -149.7 1.105e+04 5.980e-10
 84.30374   -148.1 1.061e+04 4.308e-10
 84.34379   -146.3 1.048e+04 3.619e-10
 84.38384   -144.8 1.047e+04 3.501e-10
 84.42287   -143.8 1.067e+04 3.632e-10
 84.44290   -142.3 1.053e+04 3.606e-10
 84.46393   -141.7 1.111e+04 4.537e-10
 84.50398   -141.3 1.175e+04 6.855e-10
 84.52583   -141.0 1.214e+04 9.474e-10
 84.54586   -140.3 1.243e+04 9.532e-10
 84.58408   -141.0 1.259e+04 1.089e-09
 84.62132   -141.7 1.238e+04 1.095e-09
 84.64135   -139.3 1.227e+04 1.021e-09
 84.66417   -139.1 1.187e+04 9.598e-10
 84.70422   -138.6 1.133e+04 7.549e-10
 84.74427   -137.8 1.074e+04 5.377e-10
 84.78432   -136.4 1.020e+04 3.758e-10
 84.81978   -135.0 9.768e+03 2.719e-10
 84.83980   -133.0 1.002e+04 3.153e-10
 84.86442   -131.5 9.731e+03 2.585e-10
 84.90446   -129.9 9.528e+03 2.315e-10
 84.92997   -128.3 9.433e+03 2.227e-10
 84.95000   -127.1 9.927e+03 2.284e-10
 84.98456   -125.7 9.872e+03 2.253e-10
 85.01823   -124.4 9.783e+03 2.377e-10
 85.03825   -122.6 1.014e+04 3.307e-10
 85.06466   -121.2 1.049e+04 4.596e-10
 85.10471   -120.0 1.084e+04 6.282e-10
 85.12737   -119.7 1.084e+04 7.029e-10
 85.13458   -119.3 1.091e+04 7.512e-10
 85.14186   -119.3 1.118e+04 8.048e-10
 85.15457   -119.2 1.132e+04 9.337e-10
 85.17460   -118.9 1.150e+04 1.109e-09
 85.19462   -118.7 1.171e+04 1.293e-09
 85.21464   -118.4 1.191e+04 1.502e-09
 85.22650   -118.0 1.209e+04 1.708e-09
 85.23651   -117.6 1.210e+04 1.788e-09
 85.25469   -117.2 1.218e+04 1.898e-09
 85.27472   -116.9 1.227e+04 1.945e-09
 85.29474   -116.6 1.239e+04 1.953e-09
 85.31477   -116.4 1.254e+04 1.933e-09
 85.32572   -116.3 1.273e+04 1.919e-09
 85.33486   -116.4 1.252e+04 1.681e-09
 85.34392   -116.5 1.212e+04 8.733e-10
 85.35481   -116.8 1.198e+04 8.069e-10
 85.37484   -117.2 1.181e+04 7.586e-10
 85.39486   -117.4 1.165e+04 7.254e-10
 85.41489   -117.6 1.153e+04 7.028e-10
 85.43491   -117.8 1.119e+04 6.501e-10
 85.45493   -117.8 1.117e+04 6.538e-10
 85.47496   -117.8 1.114e+04 6.525e-10
 85.49498   -117.5 1.102e+04 6.337e-10
 85.51416   -117.1 1.084e+04 6.058e-10
 85.52417   -117.0 1.077e+04 6.275e-10
 85.53503   -116.3 1.052e+04 5.826e-10
 85.54599   -115.5 1.026e+04 5.069e-10
 85.55601   -115.4 9.764e+03 3.284e-10
 85.57508   -114.8 9.685e+03 3.256e-10
 85.59510   -114.3 9.661e+03 3.282e-10
 85.61348   -113.9 9.579e+03 3.141e-10
 85.63361   -113.1 9.517e+03 3.250e-10
 85.66538   -111.3 9.200e+03 2.613e-10
 85.70543   -109.3 8.920e+03 2.119e-10
 85.73824   -107.3 8.771e+03 1.815e-10
 85.75827   -106.4 8.525e+03 1.253e-10
 85.78553   -104.4 8.472e+03 1.204e-10
 85.81203   -102.4 8.467e+03 1.184e-10
 85.83206   -101.6 8.491e+03 1.388e-10
 85.86563    -99.4 8.503e+03 1.361e-10
 85.90567    -97.2 8.511e+03 1.358e-10
 85.94572    -95.0 8.621e+03 1.373e-10
 85.98577    -93.1 8.931e+03 1.580e-10
 86.01048    -91.2 9.282e+03 2.146e-10
 86.03051    -90.5 9.636e+03 2.937e-10
 86.06587    -88.5 1.005e+04 4.085e-10
 86.09581    -87.1 1.017e+04 4.421e-10
 86.10951    -86.6 1.025e+04 4.777e-10
 86.11953    -86.4 1.043e+04 5.841e-10
 86.13576    -85.3 1.053e+04 6.512e-10
 86.15220    -84.2 1.056e+04 6.687e-10
 86.16221    -83.5 1.065e+04 6.969e-10
 86.17581    -82.4 1.066e+04 7.232e-10
 86.19583    -81.3 1.064e+04 7.153e-10
 86.20874    -80.1 1.054e+04 6.489e-10
 86.21875    -79.7 1.075e+04 7.338e-10
 86.23588    -78.6 1.063e+04 6.293e-10
 86.25590    -77.5 1.056e+04 5.487e-10
 86.27593    -76.6 1.052e+04 4.898e-10
 86.29595    -75.7 1.057e+04 4.527e-10
 86.30797    -74.7 1.061e+04 4.418e-10
 86.31798    -74.1 1.073e+04 4.672e-10
 86.33600    -73.2 1.081e+04 4.651e-10
 86.35427    -72.5 1.097e+04 4.733e-10
 86.36428    -71.2 1.077e+04 5.100e-10
 86.37605    -70.4 1.095e+04 5.131e-10
 86.39607    -69.7 1.113e+04 5.384e-10
 86.40719    -69.0 1.129e+04 5.677e-10
 86.41720    -68.2 1.154e+04 6.172e-10
 86.43612    -67.6 1.166e+04 6.354e-10
 86.45614    -67.2 1.166e+04 6.431e-10
 86.47617    -67.0 1.163e+04 6.440e-10
 86.49619    -67.2 1.158e+04 6.418e-10
 86.50642    -67.5 1.151e+04 6.342e-10
 86.51643    -67.8 1.196e+04 7.360e-10
 86.53624    -69.1 1.176e+04 7.994e-10
 86.55627    -70.8 1.196e+04 9.215e-10
 86.57629    -72.6 1.373e+04 1.609e-09
 86.59563    -75.8 1.430e+04 2.177e-09
 86.60559    -77.3 1.512e+04 2.952e-09
 86.61123    -79.9 1.575e+04 3.649e-09
 86.62125    -81.7 1.659e+04 4.461e-09
 86.63126    -84.5 1.764e+04 6.284e-09
 86.64127    -86.7 1.849e+04 8.484e-09
 86.65015    -88.4 1.915e+04 1.072e-08
 86.65516    -89.6 1.936e+04 1.138e-08
 86.66130    -90.9 1.947e+04 1.187e-08
 86.66728    -92.2 1.933e+04 1.195e-08
 86.67229    -90.9 1.903e+04 1.061e-08
 86.68132    -92.3 1.863e+04 9.726e-09
 86.69133    -93.6 1.811e+04 8.839e-09
 86.69976    -94.3 1.780e+04 8.549e-09
 86.70482    -95.2 1.757e+04 7.811e-09
 86.71646    -96.0 1.674e+04 6.363e-09
 86.73648    -96.6 1.563e+04 4.793e-09
 86.75651    -96.8 1.469e+04 3.626e-09
 86.76842    -96.5 1.402e+04 2.791e-09
 86.77843    -96.2 1.354e+04 1.856e-09
 86.79408    -95.5 1.316e+04 1.605e-09
 86.80409    -95.8 1.287e+04 1.325e-09
 86.82669    -95.0 1.266e+04 1.233e-09
 86.86684    -92.5 1.210e+04 9.879e-10
 86.90688    -89.9 1.157e+04 7.886e-10
 86.94693    -87.4 1.129e+04 6.479e-10
 86.97068    -84.9 1.107e+04 5.340e-10
 86.98644    -83.7 1.135e+04 6.090e-10
 87.00274    -83.1 1.135e+04 6.095e-10
 87.02703    -80.8 1.128e+04 5.978e-10
 87.06708    -78.5 1.112e+04 5.519e-10
 87.10713    -76.4 1.091e+04 4.689e-10
 87.14717    -74.4 1.070e+04 3.932e-10
 87.18117    -72.6 1.054e+04 3.525e-10
 87.20119    -71.9 1.062e+04 3.649e-10
 87.22727    -70.3 1.044e+04 3.504e-10
 87.26732    -68.8 1.033e+04 3.507e-10
 87.30737    -67.2 1.026e+04 3.584e-10
 87.34742    -65.8 1.028e+04 3.587e-10
 87.37482    -64.3 9.961e+03 3.613e-10
 87.38699    -63.9 9.991e+03 3.504e-10
 87.39964    -63.7 9.980e+03 3.480e-10
 87.42751    -62.1 9.685e+03 3.068e-10
 87.46756    -60.3 9.363e+03 2.358e-10
 87.50761    -58.4 9.024e+03 1.689e-10
 87.54766    -56.3 8.740e+03 1.199e-10
 87.57807    -54.3 8.534e+03 8.896e-11
 87.59810    -54.0 8.516e+03 8.443e-11
 87.62776    -51.9 8.380e+03 7.120e-11
 87.66780    -49.8 8.324e+03 6.759e-11
 87.70785    -47.5 8.315e+03 6.715e-11
 87.74790    -45.4 8.350e+03 7.287e-11
 87.77652    -43.5 8.467e+03 9.563e-11
 87.78755    -43.0 8.428e+03 9.297e-11
 87.79898    -42.5 8.416e+03 9.052e-11
 87.82800    -40.5 8.485e+03 1.140e-10
 87.86805    -38.4 8.538e+03 1.347e-10
 87.90809    -36.6 8.545e+03 1.430e-10
 87.94814    -34.8 8.518e+03 1.431e-10
 87.97497    -32.9 8.332e+03 1.268e-10
 87.99500    -32.4 8.289e+03 1.125e-10
 88.02824    -30.6 8.140e+03 9.944e-11
 88.06829    -28.8 8.027e+03 8.946e-11
 88.10834    -26.9 7.922e+03 8.250e-11
 88.14838    -24.9 7.853e+03 7.985e-11
 88.17343    -22.9 7.835e+03 7.949e-11
 88.18811    -22.3 7.856e+03 8.518e-11
 88.20311    -21.7 7.848e+03 8.394e-11
 88.22848    -19.7 7.830e+03 8.439e-11
 88.26853    -17.8 7.803e+03 8.921e-11
 88.30858    -16.0 7.792e+03 9.639e-11
 88.34863    -14.1 7.790e+03 1.033e-10
 88.37188    -12.4 7.789e+03 1.091e-10
 88.39190    -12.1 7.893e+03 1.316e-10
 88.42872    -10.4 7.950e+03 1.458e-10
 88.46877     -8.8 8.055e+03 1.641e-10
 88.50882     -7.3 8.187e+03 1.876e-10
 88.54887     -5.9 8.340e+03 2.187e-10
 88.57033     -4.7 8.544e+03 2.630e-10
 88.58866     -4.3 8.949e+03 3.544e-10
 88.60725     -4.1 8.758e+03 3.239e-10
 88.62897     -3.1 8.897e+03 3.686e-10
 88.66901     -2.2 9.072e+03 4.206e-10
 88.70906     -1.2 9.158e+03 4.566e-10
 88.74876     -0.1 9.088e+03 4.437e-10
 88.76878     -0.1 9.030e+03 4.279e-10
 88.78916      1.4 8.625e+03 3.264e-10
 88.82921      3.1 8.147e+03 2.095e-10
 88.86926      4.7 7.736e+03 1.360e-10
 88.90930      6.4 7.514e+03 1.098e-10
 88.94721      8.6 7.449e+03 1.043e-10
 88.96723      9.0 7.475e+03 1.117e-10
 88.98940     11.5 7.473e+03 1.130e-10
 89.01139     14.1 7.573e+03 1.223e-10
 89.03141     14.1 7.592e+03 1.278e-10
 89.06950     16.6 7.767e+03 1.498e-10
 89.10955     19.1 8.002e+03 1.806e-10
 89.14566     21.5 8.289e+03 2.261e-10
 89.16568     21.8 8.330e+03 2.355e-10
 89.18964     24.4 8.611e+03 2.913e-10
 89.22969     26.9 8.851e+03 3.499e-10
 89.26974     29.3 9.098e+03 3.991e-10
 89.30979     31.2 9.376e+03 4.414e-10
 89.34411     32.9 9.677e+03 5.161e-10
 89.36413     32.8 9.515e+03 4.505e-10
 89.37978     33.4 9.580e+03 4.751e-10
 89.39970     33.5 9.812e+03 5.580e-10
 89.41533     33.9 1.015e+04 7.292e-10
 89.42534     33.4 9.678e+03 5.947e-10
 89.43975     33.6 1.009e+04 7.170e-10
 89.45315     34.7 1.045e+04 9.629e-10
 89.46316     34.6 1.047e+04 9.712e-10
 89.47980     34.9 1.060e+04 1.012e-09
 89.49982     35.8 1.080e+04 1.185e-09
 89.51985     36.1 1.084e+04 1.201e-09
 89.53987     36.2 1.071e+04 1.087e-09
 89.55238     35.8 1.073e+04 1.067e-09
 89.56239     35.2 1.081e+04 1.091e-09
 89.57992     34.3 1.080e+04 1.094e-09
 89.59994     33.6 1.081e+04 1.091e-09
 89.61740     33.1 1.078e+04 1.190e-09
 89.62741     33.3 1.068e+04 1.109e-09
 89.63999     33.3 1.066e+04 1.099e-09
 89.67013     33.9 1.064e+04 1.069e-09
 89.71027     34.5 1.021e+04 7.460e-10
 89.74101     34.3 9.493e+03 5.354e-10
 89.76104     33.9 8.825e+03 3.791e-10
 89.79037     35.0 8.456e+03 3.263e-10
 89.81966     36.8 8.340e+03 2.906e-10
 89.83968     36.4 8.064e+03 2.438e-10
 89.87047     37.2 8.421e+03 2.965e-10
 89.91051     38.1 8.953e+03 4.185e-10
 89.93937     39.1 9.323e+03 5.170e-10
 89.95939     39.9 9.110e+03 4.509e-10
 89.98050     40.1 9.427e+03 5.698e-10
 90.00043     40.4 9.517e+03 6.150e-10
 90.02045     40.7 9.604e+03 6.558e-10
 90.03155     41.1 9.586e+03 6.482e-10
 90.03958     41.2 9.369e+03 5.683e-10
 90.04851     41.7 9.384e+03 5.781e-10
 90.06050     42.0 9.304e+03 5.528e-10
 90.08052     42.3 9.234e+03 5.310e-10
 90.10055     42.5 9.195e+03 5.168e-10
 90.12057     42.8 9.200e+03 5.163e-10
 90.13772     43.1 9.260e+03 5.279e-10
 90.14773     43.8 9.426e+03 5.936e-10
 90.16062     44.2 9.523e+03 6.173e-10
 90.18065     44.7 9.629e+03 6.487e-10
 90.20067     45.2 9.723e+03 6.820e-10
 90.22069     45.7 9.805e+03 7.129e-10
 90.23361     46.4 9.826e+03 7.265e-10
 90.23985     46.3 9.735e+03 6.906e-10
 90.24696     46.8 9.876e+03 7.349e-10
 90.26074     47.5 9.798e+03 7.125e-10
 90.28077     48.2 9.690e+03 6.784e-10
 90.30079     49.1 9.523e+03 6.223e-10
 90.32082     49.9 9.424e+03 5.634e-10
 90.33617     50.7 9.283e+03 5.018e-10
 90.34618     51.1 9.183e+03 4.906e-10
 90.36086     51.9 9.004e+03 4.282e-10
 90.38089     52.8 8.866e+03 3.776e-10
 90.40091     53.5 8.782e+03 3.400e-10
 90.42094     54.4 8.881e+03 3.388e-10
 90.43540     55.1 8.948e+03 3.406e-10
 90.44013     55.6 8.759e+03 2.965e-10
 90.44569     55.5 8.611e+03 2.899e-10
 90.46098     56.3 8.709e+03 2.987e-10
 90.48101     57.1 8.868e+03 3.186e-10
 90.50103     57.9 9.057e+03 3.578e-10
 90.52106     58.5 9.357e+03 4.330e-10
 90.53462     59.0 9.859e+03 5.756e-10
 90.54464     59.7 9.428e+03 4.459e-10
 90.56111     60.1 1.005e+04 6.393e-10
 90.58113     60.4 1.080e+04 9.644e-10
 90.60115     60.8 1.164e+04 1.479e-09
 90.62118     61.7 1.236e+04 2.159e-09
 90.63385     63.1 1.303e+04 2.946e-09
 90.64041     63.6 1.247e+04 2.366e-09
 90.64776     63.4 1.299e+04 2.759e-09
 90.66123     64.7 1.372e+04 3.577e-09
 90.68125     65.8 1.414e+04 3.949e-09
 90.70127     66.7 1.411e+04 3.814e-09
 90.72130     67.6 1.388e+04 3.365e-09
 90.73307     68.4 1.327e+04 2.653e-09
 90.74309     68.8 1.361e+04 2.948e-09
 90.76135     69.5 1.289e+04 2.235e-09
 90.78137     69.8 1.219e+04 1.660e-09
 90.80140     70.1 1.149e+04 1.234e-09
 90.82142     70.5 1.083e+04 9.234e-10
 90.83230     71.0 1.023e+04 7.051e-10
 90.84069     71.7 1.061e+04 8.230e-10
 90.84983     70.8 1.276e+04 1.591e-09
 90.86147     71.5 1.212e+04 1.228e-09
 90.88149     72.1 1.163e+04 1.004e-09
 90.90152     72.6 1.127e+04 8.854e-10
 90.92151     73.5 1.095e+04 8.219e-10
 90.94154     75.3 1.111e+04 8.958e-10
 90.96159     76.8 1.115e+04 9.195e-10
 90.98161     78.4 1.124e+04 9.775e-10
 91.00164     80.1 1.130e+04 1.033e-09
 91.02074     81.9 1.137e+04 1.090e-09
 91.03075     82.5 1.146e+04 1.159e-09
 91.04169     84.4 1.155e+04 1.230e-09
 91.05190     86.2 1.170e+04 1.326e-09
 91.06191     85.6 1.279e+04 2.324e-09
 91.08173     87.5 1.277e+04 2.375e-09
 91.10176     89.4 1.276e+04 2.389e-09
 91.11997     91.5 1.280e+04 2.419e-09
 91.12998     92.3 1.286e+04 2.465e-09
 91.14181     94.2 1.295e+04 2.509e-09
 91.16183     96.1 1.303e+04 2.521e-09
 91.18186     97.9 1.310e+04 2.536e-09
 91.20188     99.7 1.325e+04 2.597e-09
 91.21919    101.2 1.363e+04 2.806e-09
 91.22920    102.5 1.348e+04 2.714e-09
 91.24193    104.0 1.388e+04 2.961e-09
 91.25397    105.3 1.428e+04 3.312e-09
 91.26398    105.0 1.365e+04 2.827e-09
 91.28198    106.6 1.405e+04 3.189e-09
 91.30200    108.1 1.496e+04 3.876e-09
 91.31842    109.5 1.625e+04 5.028e-09
 91.32843    110.4 1.641e+04 4.477e-09
 91.34205    111.8 1.830e+04 6.500e-09
 91.35495    113.4 1.880e+04 7.994e-09
 91.35991    112.2 2.011e+04 8.036e-09
 91.36698    112.8 2.179e+04 9.995e-09
 91.37294    112.3 2.524e+04 1.296e-08
 91.37794    111.8 2.651e+04 1.339e-08
 91.38701    110.8 3.221e+04 1.930e-08
 91.39702    110.2 3.615e+04 3.118e-08
 91.40703    110.3 3.622e+04 5.505e-08
 91.41704    111.2 3.407e+04 9.481e-08
 91.42255    112.0 3.175e+04 1.379e-07
 91.42756    111.4 3.219e+04 1.221e-07
 91.43707    111.6 3.014e+04 1.492e-07
 91.44708    111.9 2.913e+04 1.596e-07
 91.45594    111.5 2.917e+04 1.607e-07
 91.46094    105.0 3.315e+04 4.090e-08
 91.46710     96.8 4.164e+04 2.929e-08
 91.47216     80.1 5.404e+04 1.989e-08
 91.47717     79.8 5.456e+04 1.547e-08
 91.48713     65.4 4.405e+04 3.058e-08
 91.49714     63.5 2.367e+04 1.412e-07
 91.50715     65.7 1.864e+04 2.720e-07
 91.51677     68.8 1.896e+04 2.964e-07
 91.52178     69.2 2.046e+04 2.208e-07
 91.52718     72.9 2.234e+04 1.916e-07
 91.53719     75.1 2.834e+04 9.721e-08
 91.54720     76.6 4.492e+04 1.960e-08
 91.55697     72.1 5.882e+04 5.093e-09
 91.56198     65.7 5.747e+04 2.578e-09
 91.56638     59.3 5.497e+04 7.616e-10
 91.57139     58.2 5.156e+04 7.540e-10
 91.58229     52.3 2.605e+04 1.285e-09
 91.60236     44.4 1.231e+04 8.015e-10
 91.61609     42.4 1.017e+04 4.871e-10
 91.62611     43.3 1.041e+04 5.493e-10
 91.64241     42.3 9.468e+03 3.532e-10
 91.65810     43.4 8.689e+03 2.613e-10
 91.66812     44.4 9.377e+03 3.597e-10
 91.68246     44.5 9.196e+03 3.145e-10
 91.70248     46.9 8.730e+03 2.500e-10
 91.71532     47.1 8.785e+03 2.534e-10
 91.72533     47.1 8.828e+03 2.590e-10
 91.75264     50.1 8.706e+03 2.481e-10
 91.79279     53.8 8.683e+03 2.494e-10
 91.83284     57.4 8.749e+03 2.562e-10
 91.86037     61.0 8.842e+03 2.665e-10
 91.88039     61.3 9.281e+03 3.550e-10
 91.90395     64.6 9.454e+03 3.851e-10
 91.92398     64.9 9.640e+03 4.367e-10
 91.95298     68.0 9.769e+03 4.566e-10
 91.98292     70.5 9.726e+03 4.330e-10
 92.00285     71.0 9.769e+03 4.371e-10
 92.01300     73.1 9.794e+03 4.370e-10
 92.02301     73.2 9.820e+03 4.476e-10
 92.04290     74.3 9.857e+03 4.504e-10
 92.06224     75.5 9.860e+03 4.517e-10
 92.07225     75.6 1.015e+04 5.520e-10
 92.08294     76.8 1.017e+04 5.696e-10
 92.10221     78.0 1.023e+04 5.920e-10
 92.11222     78.5 1.028e+04 6.153e-10
 92.12299     79.6 1.036e+04 6.311e-10
 92.14302     80.6 1.042e+04 6.421e-10
 92.16304     81.7 1.048e+04 6.446e-10
 92.18307     82.8 1.048e+04 6.407e-10
 92.20144     83.9 1.045e+04 6.236e-10
 92.21145     84.2 1.049e+04 6.389e-10
 92.22311     85.3 1.045e+04 6.194e-10
 92.24314     86.4 1.039e+04 5.932e-10
 92.26316     87.6 1.032e+04 5.497e-10
 92.27432     88.6 1.029e+04 5.037e-10
 92.28433     87.5 1.022e+04 4.315e-10
 92.30076     87.9 1.011e+04 3.553e-10
 92.31077     88.7 1.020e+04 3.987e-10
 92.32323     88.9 1.018e+04 3.783e-10
 92.34326     89.9 1.013e+04 3.687e-10
 92.36328     90.1 1.012e+04 3.682e-10
 92.38331     91.0 1.007e+04 3.787e-10
 92.39989     91.4 1.005e+04 3.900e-10
 92.40990     92.2 1.016e+04 4.238e-10
 92.42336     92.7 1.012e+04 4.566e-10
 92.44338     93.3 1.010e+04 4.923e-10
 92.46340     93.9 1.014e+04 5.065e-10
 92.47639     94.4 1.014e+04 5.036e-10
 92.48640     93.4 9.883e+03 3.978e-10
 92.49911     94.0 9.802e+03 3.788e-10
 92.50913     94.1 9.890e+03 4.014e-10
 92.52348     94.3 9.789e+03 3.805e-10
 92.54350     94.7 9.659e+03 3.554e-10
 92.56353     94.9 9.556e+03 3.362e-10
 92.58355     95.4 9.523e+03 3.267e-10
 92.59834     95.6 9.536e+03 3.239e-10
 92.60835     95.5 9.590e+03 3.449e-10
 92.62360     96.0 9.623e+03 3.496e-10
 92.64362     96.2 9.687e+03 3.584e-10
 92.66854     97.9 9.598e+03 3.467e-10
 92.68867     97.7 9.314e+03 2.728e-10
 92.69776     99.3 9.171e+03 2.427e-10
 92.71778     98.7 9.516e+03 3.033e-10
 92.75395    100.3 9.315e+03 2.386e-10
 92.79400    101.9 9.139e+03 1.812e-10
 92.83405    103.5 8.980e+03 1.401e-10
 92.87410    105.3 8.817e+03 1.125e-10
 92.89621    107.4 8.648e+03 9.455e-11
 92.91624    106.8 8.642e+03 9.455e-11
 92.95419    109.3 8.504e+03 8.294e-11
 92.99424    111.8 8.390e+03 7.362e-11
 93.03429    114.5 8.308e+03 6.645e-11
 93.07278    117.2 8.247e+03 6.089e-11
 93.09280    117.0 8.192e+03 5.312e-11
 93.09466    119.7 8.140e+03 5.265e-11
 93.11469    119.7 8.202e+03 5.613e-11
 93.15443    122.5 8.179e+03 5.632e-11
 93.19448    125.4 8.173e+03 5.731e-11
 93.23453    128.3 8.162e+03 6.017e-11
 93.27309    131.1 8.165e+03 6.501e-11
 93.29311    131.3 8.210e+03 6.788e-11
 93.31463    134.2 8.214e+03 7.360e-11
 93.35468    137.1 8.243e+03 8.151e-11
 93.39472    139.9 8.306e+03 9.258e-11
 93.43477    142.7 8.414e+03 1.096e-10
 93.47154    145.4 8.563e+03 1.351e-10
 93.49157    145.8 8.759e+03 1.544e-10
 93.49694    148.4 9.025e+03 2.015e-10
 93.51696    147.8 9.290e+03 2.502e-10
 93.55492    150.2 9.512e+03 3.082e-10
 93.59497    152.6 9.690e+03 3.674e-10
 93.63502    155.0 9.841e+03 4.264e-10
 93.66999    157.3 9.960e+03 4.737e-10
 93.69002    157.5 1.045e+04 6.454e-10
 93.71511    159.7 1.047e+04 6.497e-10
 93.75516    162.0 1.043e+04 6.326e-10
 93.79521    164.2 1.032e+04 5.847e-10
 93.83526    166.4 1.020e+04 5.299e-10
 93.86844    168.6 1.014e+04 4.876e-10
 93.88847    168.6 1.028e+04 4.882e-10
 93.90108    170.9 1.016e+04 4.567e-10
 93.92110    170.6 9.804e+03 3.265e-10
 93.95540    173.1 9.851e+03 3.418e-10
 93.99545    175.5 9.920e+03 3.720e-10
 94.03550    177.8 9.990e+03 4.074e-10
 94.06690    179.9 1.004e+04 4.420e-10
 94.08692    180.4 1.000e+04 3.806e-10
 94.11560    182.4 1.002e+04 3.991e-10
 94.15564    184.0 1.006e+04 4.241e-10
 94.19569    185.4 1.018e+04 4.589e-10
 94.23574    186.5 1.034e+04 4.771e-10
 94.26535    187.7 1.036e+04 4.678e-10
 94.28537    189.2 9.930e+03 3.673e-10
 94.30521    190.6 9.861e+03 3.501e-10
 94.32524    192.4 1.001e+04 3.748e-10
 94.35589    194.0 1.006e+04 3.804e-10
 94.38583    194.6 9.980e+03 3.671e-10
 94.40575    194.6 1.004e+04 3.740e-10
 94.42578    194.0 1.026e+04 4.227e-10
 94.44580    193.0 1.074e+04 5.666e-10
 94.46360    191.8 1.137e+04 8.460e-10
 94.47362    193.0 1.104e+04 6.839e-10
 94.48585    191.4 1.176e+04 1.088e-09
 94.50587    190.1 1.236e+04 1.637e-09
 94.51710    188.8 1.277e+04 1.984e-09
 94.52711    189.3 1.320e+04 2.279e-09
 94.54592    187.3 1.323e+04 2.259e-09
 94.56283    185.3 1.307e+04 2.016e-09
 94.57284    186.0 1.337e+04 2.264e-09
 94.58597    183.9 1.279e+04 1.532e-09
 94.60599    182.0 1.186e+04 9.733e-10
 94.63613    179.8 1.015e+04 4.786e-10
 94.66225    176.4 8.889e+03 2.508e-10
 94.68227    178.2 8.731e+03 2.428e-10
 94.70935    177.9 8.697e+03 2.402e-10
 94.72937    176.0 8.756e+03 2.545e-10
 94.75637    176.4 8.938e+03 2.909e-10
 94.78631    177.2 9.075e+03 3.023e-10
 94.80624    178.0 9.299e+03 3.482e-10
 94.82626    178.4 9.611e+03 4.467e-10
 94.84628    178.9 9.992e+03 5.924e-10
 94.86051    179.4 1.045e+04 7.909e-10
 94.87052    180.4 1.028e+04 7.039e-10
 94.88633    181.1 1.073e+04 9.330e-10
 94.90636    181.7 1.126e+04 1.219e-09
 94.92123    181.5 1.214e+04 1.612e-09
 94.93125    181.4 1.161e+04 1.392e-09
 94.94640    180.4 1.406e+04 1.716e-09
 94.95973    177.3 2.119e+04 2.281e-09
 94.96974    182.6 1.295e+04 1.868e-09
 94.98645    180.2 1.847e+04 2.054e-09
 95.00648    176.3 2.483e+04 2.965e-09
 95.02650    172.1 2.687e+04 5.649e-09
 95.04147    170.9 2.628e+04 6.384e-09
 95.05143    169.2 2.585e+04 8.739e-09
 95.05886    168.7 2.522e+04 1.158e-08
 95.06892    170.7 2.552e+04 7.994e-09
 95.08152    168.3 2.427e+04 1.343e-08
 95.09148    167.3 2.357e+04 1.755e-08
 95.10149    166.7 2.298e+04 2.027e-08
 95.10847    166.2 2.249e+04 2.195e-08
 95.11348    167.1 2.266e+04 1.788e-08
 95.12325    165.4 2.198e+04 2.112e-08
 95.13331    166.2 2.171e+04 1.831e-08
 95.14665    165.0 2.103e+04 1.822e-08
 95.15818    164.1 2.039e+04 1.719e-08
 95.16820    165.9 2.034e+04 1.669e-08
 95.18670    165.1 1.991e+04 1.547e-08
 95.20672    164.3 1.939e+04 1.284e-08
 95.22674    163.5 1.866e+04 7.652e-09
 95.24677    162.3 1.721e+04 3.343e-09
 95.25741    160.8 1.445e+04 1.175e-09
 95.26742    164.2 1.716e+04 3.803e-09
 95.28682    163.0 1.502e+04 1.506e-09
 95.30684    161.5 1.173e+04 5.862e-10
 95.32537    160.6 9.341e+03 3.421e-10
 95.33538    162.3 1.056e+04 4.670e-10
 95.34662    161.8 8.950e+03 3.166e-10
 95.35663    164.8 1.162e+04 6.654e-10
 95.36691    164.1 9.675e+03 3.846e-10
 95.38694    164.2 8.768e+03 3.020e-10
 95.40696    164.8 8.487e+03 2.772e-10
 95.42699    166.0 8.480e+03 2.745e-10
 95.44585    166.8 8.489e+03 2.761e-10
 95.45586    167.6 8.587e+03 2.930e-10
 95.46703    168.9 8.606e+03 2.952e-10
 95.48706    169.8 8.647e+03 3.027e-10
 95.50708    171.2 8.761e+03 3.174e-10
 95.52711    171.7 8.835e+03 3.282e-10
 95.53745    173.4 8.974e+03 3.426e-10
 95.54541    174.0 9.224e+03 3.998e-10
 95.55509    174.9 9.314e+03 4.561e-10
 95.56716    176.0 9.500e+03 4.950e-10
 95.58718    177.1 9.674e+03 5.274e-10
 95.60720    178.2 9.798e+03 5.459e-10
 95.62723    179.3 9.882e+03 5.588e-10
 95.64430    180.5 9.963e+03 5.717e-10
 95.65431    181.6 1.012e+04 7.955e-10
 95.66728    182.8 1.027e+04 8.117e-10
 95.68730    184.1 1.038e+04 8.282e-10
 95.70732    185.5 1.046e+04 8.498e-10
 95.72735    187.0 1.049e+04 8.719e-10
 95.73952    188.7 1.052e+04 8.930e-10
 95.74568    188.9 1.122e+04 1.120e-09
 95.75354    189.4 1.280e+04 1.706e-09
 95.76740    190.8 1.324e+04 1.835e-09
 95.78742    192.1 1.383e+04 2.020e-09
 95.80745    193.7 1.441e+04 2.240e-09
 95.82747    195.8 1.483e+04 2.360e-09
 95.84275    198.5 1.518e+04 2.363e-09
 95.85271    198.3 1.622e+04 3.345e-09
 95.86241    199.8 1.682e+04 3.696e-09
 95.87243    201.5 1.754e+04 4.162e-09
 95.88244    203.2 1.839e+04 4.782e-09
 95.89227    205.1 1.940e+04 5.609e-09
 95.89727    204.1 2.081e+04 1.150e-08
 95.90246    206.4 2.157e+04 1.433e-08
 95.91247    209.2 2.223e+04 1.808e-08
 95.92249    212.7 2.265e+04 2.313e-08
 95.93250    216.6 2.350e+04 2.852e-08
 95.94149    222.0 2.698e+04 4.484e-08
 95.94586    221.5 2.403e+04 6.978e-08
 95.94689    217.3 2.535e+04 1.411e-07
 95.95252    225.0 3.031e+04 1.823e-07
 95.96254    231.5 3.457e+04 2.361e-07
 95.96916    238.5 3.515e+04 4.398e-07
 95.97164    233.0 3.403e+04 4.353e-07
 95.97500    231.1 2.708e+04 3.431e-06
 95.97874    231.6 2.319e+04 1.019e-05
 95.98123    229.0 1.614e+04 1.253e-04
 95.98277    224.3 1.129e+04 9.084e-03
 95.98402    209.1 1.092e+04 1.240e-02
 95.98561    209.4 9.671e+03 4.941e-02
 95.98685    206.5 9.086e+03 1.980e-01
 95.98779    199.9 8.679e+03 3.721e-01
 95.98841    192.5 8.042e+03 7.169e-01
 95.98895    183.5 7.967e+03 1.350e+00
 95.98927    187.0 8.314e+03 1.213e+00
 95.98966    174.7 8.235e+03 1.510e+00
 95.98998    161.0 1.012e+04 1.244e+00
 95.99014    172.2 8.136e+03 5.598e+00
 95.99044    164.1 8.300e+03 4.765e+00
 95.99091    159.7 8.226e+03 4.288e+00
 95.99154    158.1 8.945e+03 9.749e-01
 95.99205    151.3 9.307e+03 5.613e-01
 95.99237    150.3 9.309e+03 5.122e-01
 95.99311    129.2 9.389e+03 2.256e-01
 95.99436    124.1 9.219e+03 1.540e-01
 95.99516    123.3 9.401e+03 1.040e-01
 95.99585    120.1 1.111e+04 1.419e-02
 95.99694    129.2 1.012e+04 3.580e-02
 95.99876    131.6 1.162e+04 6.734e-03
 96.00126    132.7 1.361e+04 1.026e-03
 96.00503    129.8 2.118e+04 1.795e-05
 96.01004    122.6 4.631e+04 3.807e-07
 96.01505    119.4 6.513e+04 4.908e-08
 96.02258    109.0 5.610e+04 3.722e-08
 96.03262    105.8 3.967e+04 5.035e-08
 96.04110    109.1 3.352e+04 5.698e-08
 96.04600    112.0 2.971e+04 6.095e-08
 96.04753    111.2 2.807e+04 8.608e-08
 96.05264    113.8 2.822e+04 9.346e-08
 96.06266    115.6 2.802e+04 9.098e-08
 96.07267    117.2 2.798e+04 7.510e-08
 96.08268    118.8 3.056e+04 4.250e-08
 96.09072    119.8 3.107e+04 2.203e-08
 96.09572    120.9 2.678e+04 4.561e-08
 96.10270    121.1 2.829e+04 2.428e-08
 96.11272    120.9 2.872e+04 1.226e-08
 96.12273    121.1 2.723e+04 6.001e-09
 96.13274    120.9 2.415e+04 3.198e-09
 96.14033    121.7 2.131e+04 1.852e-09
 96.14534    122.5 2.378e+04 3.667e-09
 96.14856    122.3 2.192e+04 2.374e-09
 96.15357    121.6 2.382e+04 4.511e-09
 96.16278    123.4 2.420e+04 3.372e-09
 96.17279    123.8 2.441e+04 3.314e-09
 96.18786    126.7 2.310e+04 2.719e-09
 96.20793    128.4 1.944e+04 1.027e-09
 96.22795    128.9 1.375e+04 4.281e-10
 96.23965    130.3 1.102e+04 3.109e-10
 96.24967    131.6 1.378e+04 4.020e-10
 96.26800    132.5 1.060e+04 2.807e-10
 96.28803    134.3 9.940e+03 2.561e-10
 96.30805    136.7 9.889e+03 2.411e-10
 96.32807    138.6 1.006e+04 2.430e-10
 96.33888    141.0 1.031e+04 2.457e-10
 96.34652    141.1 9.875e+03 2.441e-10
 96.35574    140.5 1.014e+04 2.785e-10
 96.36812    142.7 1.015e+04 2.802e-10
 96.38815    144.7 1.029e+04 2.853e-10
 96.40817    146.7 1.064e+04 2.948e-10
 96.42809    148.6 1.096e+04 3.111e-10
 96.43811    148.9 1.044e+04 3.022e-10
 96.44822    150.7 1.046e+04 3.074e-10
 96.46824    152.4 1.047e+04 3.094e-10
 96.48827    154.0 1.054e+04 3.133e-10
 96.50829    155.6 1.074e+04 3.312e-10
 96.52732    157.3 1.090e+04 3.661e-10
 96.53733    157.7 1.043e+04 3.450e-10
 96.54779    159.3 1.056e+04 3.714e-10
 96.55780    159.3 1.051e+04 3.806e-10
 96.56837    161.0 1.058e+04 4.106e-10
 96.58839    162.6 1.058e+04 4.410e-10
 96.60841    164.3 1.060e+04 4.725e-10
 96.62654    165.8 1.067e+04 5.088e-10
 96.63656    166.3 1.065e+04 5.074e-10
 96.64846    167.8 1.077e+04 5.515e-10
 96.66849    168.9 1.096e+04 6.053e-10
 96.68851    169.8 1.125e+04 6.724e-10
 96.70853    170.5 1.197e+04 7.614e-10
 96.72577    170.7 1.316e+04 9.362e-10
 96.73578    172.3 1.191e+04 8.480e-10
 96.74858    172.5 1.292e+04 9.725e-10
 96.75987    172.5 1.408e+04 1.284e-09
 96.76989    171.8 1.453e+04 1.623e-09
 96.78863    171.7 1.545e+04 2.342e-09
 96.80866    171.6 1.613e+04 3.356e-09
 96.82500    171.8 1.655e+04 4.495e-09
 96.83501    173.0 1.613e+04 3.219e-09
 96.84870    173.1 1.650e+04 4.175e-09
 96.86873    173.2 1.659e+04 4.844e-09
 96.88875    173.3 1.647e+04 4.979e-09
 96.90878    173.5 1.621e+04 4.674e-09
 96.92422    173.8 1.574e+04 4.059e-09
 96.93423    174.1 1.564e+04 3.800e-09
 96.94882    174.4 1.513e+04 3.288e-09
 96.96194    174.7 1.459e+04 2.753e-09
 96.97195    174.7 1.457e+04 2.754e-09
 96.98887    174.9 1.411e+04 2.256e-09
 97.00890    175.2 1.372e+04 1.873e-09
 97.02345    175.6 1.340e+04 1.579e-09
 97.03346    176.0 1.339e+04 1.570e-09
 97.04895    176.5 1.314e+04 1.368e-09
 97.06897    177.3 1.292e+04 1.222e-09
 97.08899    178.1 1.270e+04 1.099e-09
 97.10902    179.4 1.246e+04 9.485e-10
 97.12267    180.2 1.231e+04 8.598e-10
 97.13269    180.7 1.197e+04 7.414e-10
 97.15410    182.4 1.193e+04 6.413e-10
 97.17412    183.6 1.147e+04 6.299e-10
 97.18912    185.2 1.159e+04 5.874e-10
 97.20914    185.9 1.161e+04 5.741e-10
 97.22200    188.2 1.150e+04 5.216e-10
 97.23201    188.7 1.116e+04 4.799e-10
 97.24919    189.1 1.115e+04 4.749e-10
 97.27932    192.8 1.096e+04 4.616e-10
 97.31947    196.4 1.111e+04 4.755e-10
 97.35952    199.2 1.170e+04 5.356e-10
 97.38945    201.5 1.174e+04 5.761e-10
 97.40938    202.4 1.207e+04 6.295e-10
 97.42035    202.7 1.326e+04 7.770e-10
 97.43036    205.0 1.215e+04 7.151e-10
 97.44943    205.4 1.313e+04 8.730e-10
 97.46945    205.8 1.414e+04 1.447e-09
 97.48948    206.5 1.485e+04 2.655e-09
 97.50950    207.6 1.545e+04 4.551e-09
 97.52953    210.6 1.571e+04 5.226e-09
 97.54955    212.5 1.631e+04 7.555e-09
 97.56413    213.1 1.655e+04 8.602e-09
 97.56909    213.7 1.650e+04 8.168e-09
 97.57306    214.6 1.671e+04 8.967e-09
 97.57811    213.8 1.651e+04 6.603e-09
 97.58454    214.8 1.677e+04 7.481e-09
 97.59451    215.0 1.719e+04 8.883e-09
 97.60452    215.0 1.798e+04 1.109e-08
 97.61370    214.6 1.932e+04 1.438e-08
 97.61870    215.8 1.888e+04 1.381e-08
 97.62454    215.0 2.036e+04 1.863e-08
 97.63456    214.0 2.190e+04 2.518e-08
 97.64457    212.9 2.315e+04 3.337e-08
 97.65458    211.9 2.369e+04 4.304e-08
 97.66331    211.1 2.328e+04 5.251e-08
 97.66832    212.5 2.353e+04 6.440e-08
 97.67409    211.5 2.336e+04 6.828e-08
 97.67910    212.5 2.380e+04 6.334e-08
 97.68462    211.4 2.354e+04 6.608e-08
 97.69463    210.1 2.315e+04 6.450e-08
 97.70464    209.1 2.226e+04 5.626e-08
 97.71292    208.8 2.139e+04 4.332e-08
 97.71793    209.7 2.195e+04 5.109e-08
 97.72466    209.6 2.120e+04 3.286e-08
 97.73468    209.0 2.070e+04 1.907e-08
 97.74469    206.8 1.997e+04 8.411e-09
 97.75470    205.9 1.955e+04 7.273e-09
 97.76977    203.8 1.813e+04 3.259e-09
 97.78023    200.2 1.438e+04 1.064e-09
 97.79024    204.9 1.822e+04 2.804e-09
 97.80724    201.5 1.482e+04 8.009e-10
 97.81725    200.4 1.425e+04 1.061e-09
 97.82989    197.6 1.015e+04 4.369e-10
 97.84991    197.2 9.638e+03 3.678e-10
 97.86994    197.8 9.596e+03 3.550e-10
 97.88996    199.3 9.607e+03 3.550e-10
 97.90647    201.0 9.684e+03 3.542e-10
 97.91648    200.7 9.699e+03 3.590e-10
 97.93001    202.2 9.804e+03 3.598e-10
 97.95003    203.6 9.844e+03 3.602e-10
 97.97006    204.3 9.867e+03 3.611e-10
 97.98230    205.5 9.901e+03 3.611e-10
 97.99800    207.3 9.717e+03 3.320e-10
 98.01590    207.4 1.006e+04 4.138e-10
 98.04034    210.8 1.022e+04 4.385e-10
 98.07028    211.9 1.032e+04 4.423e-10
 98.09020    212.7 1.044e+04 4.566e-10
 98.10492    213.3 1.058e+04 4.903e-10
 98.11493    214.1 1.094e+04 6.174e-10
 98.13025    214.7 1.103e+04 6.665e-10
 98.15028    215.4 1.097e+04 7.090e-10
 98.17030    216.1 1.088e+04 7.352e-10
 98.18436    216.9 1.079e+04 7.432e-10
 98.19438    217.6 1.074e+04 6.579e-10
 98.20414    218.3 1.064e+04 6.582e-10
 98.21416    219.1 1.092e+04 7.483e-10
 98.23037    219.8 1.073e+04 7.024e-10
 98.25040    220.5 1.056e+04 6.490e-10
 98.27042    221.1 1.039e+04 5.924e-10
 98.29045    221.3 1.025e+04 5.413e-10
 98.30337    221.3 1.015e+04 4.763e-10
 98.31338    222.2 1.017e+04 4.849e-10
 98.33049    221.8 1.007e+04 4.208e-10
 98.36063    220.3 9.866e+03 3.406e-10
 98.38663    219.9 9.692e+03 3.073e-10
 98.39654    221.4 9.848e+03 3.475e-10
 98.40260    221.0 9.797e+03 3.422e-10
 98.41261    221.7 9.826e+03 3.534e-10
 98.43062    221.4 9.834e+03 3.545e-10
 98.45064    221.1 9.877e+03 3.627e-10
 98.47066    221.0 9.989e+03 3.941e-10
 98.49069    220.8 1.021e+04 4.634e-10
 98.50182    220.6 1.053e+04 5.749e-10
 98.51183    220.8 1.076e+04 6.533e-10
 98.53074    220.4 1.110e+04 7.923e-10
 98.55076    220.0 1.140e+04 9.251e-10
 98.57078    219.7 1.163e+04 1.002e-09
 98.58850    219.3 1.168e+04 1.005e-09
 98.59851    218.7 1.182e+04 1.057e-09
 98.60105    218.2 1.177e+04 1.011e-09
 98.61106    217.9 1.174e+04 9.836e-10
 98.63086    217.4 1.158e+04 9.040e-10
 98.65088    216.9 1.144e+04 8.301e-10
 98.67091    216.5 1.131e+04 7.652e-10
 98.69026    216.2 1.120e+04 7.055e-10
 98.70027    215.7 1.119e+04 6.750e-10
 98.71095    215.5 1.116e+04 6.488e-10
 98.73098    215.3 1.116e+04 6.481e-10
 98.75100    215.1 1.121e+04 6.556e-10
 98.77103    214.9 1.136e+04 6.901e-10
 98.78949    214.6 1.159e+04 7.740e-10
 98.79902    214.5 1.169e+04 8.078e-10
 98.80058    213.6 1.239e+04 1.127e-09
 98.81108    213.7 1.274e+04 1.328e-09
 98.83110    213.8 1.309e+04 1.566e-09
 98.85112    214.1 1.342e+04 1.824e-09
 98.87115    214.3 1.374e+04 2.092e-09
 98.88871    214.5 1.407e+04 2.373e-09
 98.89872    214.5 1.424e+04 2.473e-09
 98.91120    214.4 1.452e+04 2.799e-09
 98.93122    214.3 1.482e+04 3.175e-09
 98.95124    214.2 1.515e+04 3.671e-09
 98.97127    214.2 1.556e+04 4.340e-09
 98.98794    214.1 1.597e+04 5.037e-09
 98.99795    213.8 1.632e+04 5.440e-09
 99.00260    213.5 1.640e+04 5.458e-09
 99.01261    213.1 1.635e+04 4.490e-09
 99.03134    212.1 1.638e+04 4.311e-09
 99.05137    211.3 1.614e+04 3.575e-09
 99.07139    210.2 1.550e+04 2.543e-09
 99.08716    208.6 1.447e+04 1.595e-09
 99.09718    207.0 1.449e+04 1.610e-09
 99.11144    204.3 1.301e+04 9.155e-10
 99.13146    201.2 1.163e+04 5.800e-10
 99.15149    198.9 1.123e+04 5.333e-10
 99.17151    198.1 1.121e+04 5.351e-10
 99.18639    197.6 1.116e+04 5.496e-10
 99.19640    195.1 1.122e+04 6.286e-10
 99.20472    195.0 1.114e+04 6.548e-10
 99.21473    193.6 1.143e+04 7.561e-10
 99.23158    194.1 1.142e+04 7.651e-10
 99.25161    194.8 1.146e+04 7.697e-10
 99.27163    195.5 1.147e+04 7.797e-10
 99.28561    196.3 1.147e+04 7.847e-10
 99.29563    194.7 1.170e+04 8.727e-10
 99.31168    195.9 1.167e+04 8.562e-10
 99.33170    197.2 1.166e+04 8.436e-10
 99.35173    198.3 1.191e+04 8.679e-10
 99.37175    199.6 1.258e+04 9.524e-10
 99.38484    200.9 1.318e+04 1.047e-09
 99.38980    200.2 1.402e+04 1.274e-09
 99.39669    200.5 1.422e+04 1.252e-09
 99.40669    201.5 1.528e+04 1.265e-09
 99.41670    197.6 2.454e+04 2.414e-09
 99.42672    197.9 2.558e+04 2.853e-09
 99.43436    198.5 2.590e+04 3.364e-09
 99.43936    196.9 2.790e+04 8.169e-09
 99.44675    197.7 2.722e+04 9.518e-09
 99.45676    198.4 2.653e+04 1.058e-08
 99.46677    198.9 2.570e+04 1.185e-08
 99.47678    199.4 2.485e+04 1.365e-08
 99.48397    199.9 2.392e+04 1.563e-08
 99.48897    199.7 2.290e+04 4.951e-08
 99.49681    200.5 2.266e+04 4.949e-08
 99.50682    200.9 2.266e+04 4.902e-08
 99.51273    200.6 2.287e+04 5.074e-08
 99.51773    198.6 2.330e+04 6.093e-08
 99.52684    197.8 2.406e+04 6.314e-08
 99.53358    197.0 2.467e+04 6.521e-08
 99.53859    194.9 2.473e+04 1.428e-07
 99.54687    193.2 2.502e+04 1.811e-07
 99.55688    190.7 2.565e+04 2.352e-07
 99.56689    188.1 2.699e+04 2.537e-07
 99.57690    185.5 2.866e+04 2.320e-07
 99.58319    182.8 3.008e+04 1.933e-07
 99.58820    174.4 3.053e+04 1.769e-07
 99.59693    171.4 3.075e+04 1.405e-07
 99.60694    169.2 3.031e+04 1.111e-07
 99.61376    167.4 2.928e+04 8.881e-08
 99.61877    165.1 2.724e+04 5.674e-08
 99.62696    164.1 2.567e+04 4.752e-08
 99.63281    163.1 2.427e+04 3.935e-08
 99.63781    160.8 2.200e+04 2.591e-08
 99.64699    160.5 2.138e+04 2.017e-08
 99.65700    160.1 2.141e+04 1.526e-08
 99.66701    159.5 2.173e+04 1.218e-08
 99.67702    158.5 2.278e+04 9.603e-09
 99.68242    157.3 2.308e+04 9.237e-09
 99.69248    148.6 2.619e+04 8.363e-09
 99.71216    146.5 2.556e+04 9.128e-09
 99.73219    145.0 2.483e+04 1.008e-08
 99.75221    144.2 2.367e+04 1.128e-08
 99.77173    144.0 2.256e+04 1.183e-08
 99.78174    139.3 2.061e+04 1.133e-08
 99.79226    140.6 1.999e+04 1.030e-08
 99.81092    141.8 1.954e+04 8.855e-09
 99.82093    139.2 2.049e+04 7.238e-09
 99.83231    139.3 2.009e+04 4.871e-09
 99.85233    138.7 1.949e+04 3.297e-09
 99.87096    137.5 1.835e+04 2.457e-09
 99.88097    132.3 1.584e+04 1.548e-09
 99.89238    131.6 1.430e+04 1.480e-09
 99.91241    131.2 1.356e+04 1.570e-09
 99.93243    131.2 1.357e+04 1.883e-09
 99.95245    131.4 1.419e+04 2.235e-09
 99.97018    131.6 1.471e+04 2.586e-09
 99.98019    130.9 1.455e+04 2.432e-09
 99.99250    130.9 1.472e+04 2.526e-09
