# Columns:
#   distance along LOS (in CHIMPs)
#   peculiar velocity  (in km/s)
#   temperature (K)
#   HI number density
# pos=(182.353,74.3913,241.477), angles=(1.58068,3.35566)
  0.00846     11.9 8.640e+03 2.730e-09
  0.03691     13.8 8.510e+03 2.277e-09
  0.07689     15.7 8.412e+03 1.906e-09
  0.10058     17.7 8.400e+03 1.713e-09
  0.12057     17.8 8.227e+03 1.466e-09
  0.15684     20.0 8.250e+03 1.484e-09
  0.19682     22.3 8.351e+03 1.565e-09
  0.23680     24.7 8.544e+03 1.780e-09
  0.27248     27.0 8.852e+03 2.154e-09
  0.29247     27.1 8.753e+03 1.968e-09
  0.31675     29.0 9.190e+03 2.638e-09
  0.34664     30.4 9.378e+03 3.089e-09
  0.36653     30.8 9.506e+03 3.491e-09
  0.37822     31.4 9.744e+03 4.449e-09
  0.38822     31.2 9.795e+03 4.858e-09
  0.40650     31.9 1.007e+04 6.058e-09
  0.42649     32.7 1.033e+04 6.943e-09
  0.44648     33.1 1.054e+04 7.631e-09
  0.46417     33.4 1.073e+04 8.234e-09
  0.47416     33.1 1.066e+04 7.667e-09
  0.48646     33.2 1.086e+04 8.109e-09
  0.50645     33.2 1.112e+04 8.802e-09
  0.52643     33.2 1.136e+04 9.841e-09
  0.55651     32.3 1.190e+04 1.171e-08
  0.59659     31.6 1.216e+04 1.212e-08
  0.63626     31.3 1.208e+04 9.875e-09
  0.65625     31.5 1.144e+04 6.485e-09
  0.67654     32.2 1.130e+04 3.566e-09
  0.71652     32.8 1.138e+04 1.624e-09
  0.75650     33.5 1.133e+04 1.027e-09
  0.79647     35.2 1.119e+04 1.016e-09
  0.82815     37.2 1.121e+04 1.057e-09
  0.84813     38.1 1.114e+04 1.033e-09
  0.87643     40.1 1.125e+04 1.129e-09
  0.91640     42.1 1.134e+04 1.237e-09
  0.95638     44.0 1.152e+04 1.259e-09
  0.99636     45.8 1.165e+04 1.245e-09
  1.02003     47.8 1.180e+04 1.219e-09
  1.04002     48.1 1.178e+04 1.195e-09
  1.07631     50.0 1.190e+04 1.168e-09
  1.11629     51.9 1.200e+04 1.177e-09
  1.15627     53.8 1.218e+04 1.228e-09
  1.19193     55.8 1.227e+04 1.379e-09
  1.21191     55.4 1.228e+04 1.337e-09
  1.23622     57.2 1.235e+04 1.492e-09
  1.27620     59.0 1.243e+04 1.676e-09
  1.31617     60.6 1.250e+04 1.962e-09
  1.35615     62.7 1.266e+04 2.464e-09
  1.38381     64.9 1.294e+04 3.148e-09
  1.40380     63.5 1.298e+04 2.911e-09
  1.42601     64.1 1.311e+04 3.238e-09
  1.44590     64.6 1.314e+04 3.728e-09
  1.46589     65.2 1.318e+04 4.373e-09
  1.47956     65.8 1.330e+04 4.854e-09
  1.48955     65.2 1.331e+04 4.118e-09
  1.50587     65.8 1.353e+04 4.088e-09
  1.52586     66.2 1.360e+04 4.011e-09
  1.54585     66.6 1.378e+04 3.757e-09
  1.56551     66.8 1.392e+04 3.506e-09
  1.57550     66.1 1.395e+04 2.874e-09
  1.59591     66.6 1.423e+04 2.471e-09
  1.63599     67.7 1.449e+04 2.046e-09
  1.67597     69.0 1.473e+04 1.669e-09
  1.71594     70.3 1.494e+04 1.418e-09
  1.74759     71.7 1.504e+04 1.345e-09
  1.76758     72.1 1.484e+04 9.793e-10
  1.79590     73.7 1.491e+04 9.999e-10
  1.83587     75.4 1.491e+04 1.098e-09
  1.87585     76.8 1.478e+04 1.310e-09
  1.91583     78.1 1.459e+04 1.719e-09
  1.93948     79.9 1.429e+04 2.212e-09
  1.95946     81.1 1.423e+04 1.321e-09
  1.99578     82.6 1.410e+04 1.588e-09
  2.03576     83.9 1.400e+04 1.848e-09
  2.07574     85.1 1.399e+04 1.879e-09
  2.11137     86.5 1.393e+04 1.792e-09
  2.13136     87.9 1.398e+04 1.298e-09
  2.15569     89.7 1.391e+04 1.154e-09
  2.19567     91.6 1.394e+04 9.230e-10
  2.23564     93.6 1.400e+04 7.302e-10
  2.27562     95.8 1.390e+04 6.672e-10
  2.30326     98.3 1.387e+04 6.687e-10
  2.32325     99.2 1.393e+04 6.591e-10
  2.35557    101.7 1.388e+04 6.726e-10
  2.39555    104.3 1.378e+04 7.279e-10
  2.43553    106.9 1.363e+04 8.379e-10
  2.47515    109.5 1.348e+04 1.009e-09
  2.49514    110.0 1.359e+04 8.577e-10
  2.51548    112.5 1.346e+04 9.988e-10
  2.55546    114.8 1.334e+04 1.201e-09
  2.59544    117.0 1.322e+04 1.493e-09
  2.63541    119.1 1.309e+04 1.910e-09
  2.66704    121.0 1.297e+04 2.480e-09
  2.68703    121.3 1.309e+04 1.985e-09
  2.71537    123.1 1.296e+04 2.593e-09
  2.75534    124.8 1.287e+04 3.307e-09
  2.79532    126.5 1.281e+04 3.856e-09
  2.83530    128.0 1.277e+04 3.964e-09
  2.85892    129.5 1.274e+04 3.882e-09
  2.87891    129.9 1.281e+04 3.456e-09
  2.91525    131.6 1.273e+04 3.369e-09
  2.95523    133.4 1.263e+04 3.037e-09
  2.99520    135.3 1.255e+04 2.609e-09
  3.03082    137.4 1.244e+04 2.331e-09
  3.05081    138.1 1.253e+04 2.269e-09
  3.07516    140.4 1.250e+04 2.246e-09
  3.11513    142.6 1.250e+04 2.278e-09
  3.15511    144.7 1.252e+04 2.449e-09
  3.19509    146.2 1.249e+04 2.696e-09
  3.22270    148.0 1.255e+04 3.206e-09
  3.23260    147.0 1.269e+04 2.934e-09
  3.24486    147.7 1.263e+04 3.184e-09
  3.26485    148.4 1.268e+04 3.587e-09
  3.28484    148.9 1.276e+04 4.050e-09
  3.30483    149.3 1.279e+04 4.459e-09
  3.31845    149.6 1.277e+04 4.749e-09
  3.32844    149.5 1.278e+04 4.431e-09
  3.34481    149.8 1.273e+04 4.516e-09
  3.36480    150.2 1.269e+04 4.594e-09
  3.38478    150.6 1.266e+04 4.705e-09
  3.40440    151.0 1.264e+04 4.865e-09
  3.41439    150.8 1.264e+04 4.014e-09
  3.42476    151.2 1.264e+04 4.111e-09
  3.44475    151.6 1.267e+04 4.256e-09
  3.46474    151.9 1.272e+04 4.458e-09
  3.48473    152.0 1.279e+04 4.687e-09
  3.50034    152.0 1.287e+04 4.855e-09
  3.51033    151.8 1.287e+04 3.963e-09
  3.52470    151.7 1.299e+04 4.086e-09
  3.54469    151.5 1.305e+04 4.086e-09
  3.56468    151.3 1.306e+04 4.032e-09
  3.58425    150.9 1.308e+04 3.777e-09
  3.59424    151.1 1.306e+04 4.658e-09
  3.59628    150.9 1.299e+04 4.108e-09
  3.60628    150.7 1.302e+04 4.015e-09
  3.62465    150.6 1.295e+04 3.537e-09
  3.64463    150.5 1.293e+04 3.107e-09
  3.66462    150.4 1.294e+04 2.748e-09
  3.68223    150.3 1.292e+04 2.614e-09
  3.69222    150.3 1.296e+04 2.626e-09
  3.70460    150.6 1.281e+04 2.575e-09
  3.72459    150.8 1.278e+04 2.580e-09
  3.74458    151.4 1.276e+04 2.599e-09
  3.76456    151.7 1.271e+04 2.660e-09
  3.77817    152.4 1.265e+04 2.844e-09
  3.78817    152.6 1.275e+04 2.863e-09
  3.80454    153.2 1.270e+04 3.271e-09
  3.82453    153.8 1.277e+04 3.886e-09
  3.84452    154.3 1.288e+04 4.705e-09
  3.86412    154.8 1.300e+04 5.857e-09
  3.87411    154.9 1.304e+04 5.606e-09
  3.88450    155.3 1.317e+04 6.937e-09
  3.90448    155.7 1.333e+04 8.840e-09
  3.92447    156.1 1.353e+04 1.147e-08
  3.94446    156.4 1.372e+04 1.477e-08
  3.96006    156.6 1.388e+04 1.823e-08
  3.97006    156.6 1.388e+04 1.532e-08
  3.98444    156.7 1.399e+04 1.753e-08
  4.00443    156.7 1.410e+04 1.881e-08
  4.02441    156.7 1.413e+04 1.889e-08
  4.04440    156.6 1.411e+04 1.869e-08
  4.05600    156.5 1.410e+04 1.814e-08
  4.06600    156.5 1.396e+04 1.497e-08
  4.08438    156.4 1.397e+04 1.429e-08
  4.10437    156.3 1.403e+04 1.333e-08
  4.12436    156.1 1.407e+04 1.227e-08
  4.14195    155.8 1.404e+04 1.105e-08
  4.15195    156.3 1.392e+04 9.509e-09
  4.16433    156.3 1.391e+04 9.166e-09
  4.19441    157.2 1.382e+04 8.560e-09
  4.23449    157.4 1.380e+04 7.921e-09
  4.27447    157.5 1.381e+04 7.106e-09
  4.31404    157.6 1.379e+04 6.193e-09
  4.33403    158.3 1.401e+04 6.813e-09
  4.35442    158.2 1.405e+04 5.958e-09
  4.39440    158.6 1.410e+04 5.372e-09
  4.43437    158.7 1.418e+04 5.297e-09
  4.46426    158.6 1.431e+04 5.451e-09
  4.48415    158.7 1.440e+04 5.675e-09
  4.50414    158.7 1.449e+04 6.102e-09
  4.51573    158.7 1.453e+04 6.488e-09
  4.52582    159.0 1.450e+04 6.105e-09
  4.55430    159.1 1.457e+04 6.773e-09
  4.59428    159.2 1.465e+04 7.407e-09
  4.63426    159.0 1.475e+04 8.022e-09
  4.67423    158.3 1.484e+04 8.561e-09
  4.69781    157.1 1.498e+04 8.851e-09
  4.71780    156.3 1.507e+04 9.152e-09
  4.75419    154.5 1.515e+04 9.076e-09
  4.79417    152.6 1.519e+04 8.879e-09
  4.83414    150.9 1.517e+04 8.392e-09
  4.86971    149.5 1.508e+04 7.786e-09
  4.88970    149.0 1.516e+04 8.299e-09
  4.91410    148.0 1.498e+04 7.662e-09
  4.95407    147.7 1.483e+04 6.692e-09
  4.99405    147.7 1.472e+04 5.634e-09
  5.03403    148.0 1.467e+04 4.609e-09
  5.06159    148.9 1.454e+04 3.894e-09
  5.08158    148.9 1.448e+04 3.753e-09
  5.11398    150.4 1.443e+04 3.747e-09
  5.15396    152.1 1.441e+04 3.917e-09
  5.19393    153.7 1.443e+04 4.483e-09
  5.23349    155.3 1.444e+04 5.153e-09
  5.25348    155.0 1.447e+04 5.527e-09
  5.27389    155.9 1.439e+04 5.841e-09
  5.31387    156.9 1.432e+04 5.749e-09
  5.35384    158.0 1.414e+04 5.447e-09
  5.39382    159.4 1.395e+04 5.064e-09
  5.42537    161.1 1.394e+04 4.995e-09
  5.44536    161.3 1.381e+04 4.436e-09
  5.46368    161.7 1.384e+04 4.501e-09
  5.48357    162.1 1.383e+04 4.500e-09
  5.50356    162.5 1.377e+04 4.569e-09
  5.52112    163.1 1.369e+04 4.735e-09
  5.53112    163.2 1.361e+04 4.409e-09
  5.54354    163.8 1.357e+04 4.743e-09
  5.56222    164.5 1.358e+04 5.218e-09
  5.57222    164.5 1.379e+04 6.589e-09
  5.58351    165.0 1.383e+04 7.282e-09
  5.60350    165.5 1.390e+04 8.159e-09
  5.61706    166.0 1.401e+04 9.330e-09
  5.62706    166.1 1.403e+04 9.549e-09
  5.64348    166.6 1.416e+04 1.119e-08
  5.66347    166.9 1.430e+04 1.312e-08
  5.68346    167.1 1.443e+04 1.536e-08
  5.70301    167.2 1.457e+04 1.789e-08
  5.71301    167.4 1.452e+04 1.668e-08
  5.72343    167.5 1.471e+04 1.883e-08
  5.74342    167.5 1.501e+04 2.175e-08
  5.76341    167.2 1.537e+04 2.631e-08
  5.78340    166.6 1.574e+04 3.335e-08
  5.79895    165.6 1.608e+04 4.313e-08
  5.80895    166.2 1.595e+04 4.026e-08
  5.82338    165.1 1.630e+04 5.272e-08
  5.84336    163.8 1.656e+04 6.194e-08
  5.86335    162.2 1.659e+04 6.290e-08
  5.88334    160.8 1.646e+04 6.206e-08
  5.89490    160.3 1.629e+04 6.139e-08
  5.90489    160.6 1.634e+04 6.467e-08
  5.92332    160.5 1.635e+04 6.698e-08
  5.94331    160.5 1.659e+04 7.468e-08
  5.96329    160.0 1.689e+04 8.063e-08
  5.98084    158.9 1.690e+04 7.952e-08
  5.99084    159.0 1.655e+04 7.303e-08
  6.00327    158.0 1.634e+04 6.521e-08
  6.02326    158.0 1.576e+04 4.775e-08
  6.04325    158.2 1.505e+04 2.940e-08
  6.06324    158.6 1.473e+04 1.694e-08
  6.07679    159.0 1.444e+04 1.020e-08
  6.08678    159.4 1.431e+04 9.438e-09
  6.11331    159.6 1.405e+04 5.527e-09
  6.15294    160.5 1.318e+04 4.307e-09
  6.17292    161.6 1.322e+04 4.593e-09
  6.19336    163.3 1.315e+04 4.618e-09
  6.23333    165.0 1.305e+04 5.155e-09
  6.27331    166.6 1.308e+04 7.080e-09
  6.31329    167.7 1.325e+04 9.757e-09
  6.34482    168.1 1.333e+04 1.057e-08
  6.36481    169.0 1.373e+04 1.515e-08
  6.39324    169.0 1.369e+04 1.461e-08
  6.43322    169.0 1.344e+04 1.176e-08
  6.47320    169.4 1.305e+04 7.698e-09
  6.51317    170.3 1.266e+04 4.378e-09
  6.53670    171.5 1.250e+04 3.101e-09
  6.55669    172.7 1.276e+04 4.568e-09
  6.58303    173.3 1.276e+04 4.182e-09
  6.60293    173.9 1.272e+04 3.930e-09
  6.62246    174.7 1.274e+04 3.811e-09
  6.63245    174.8 1.281e+04 4.563e-09
  6.64290    175.6 1.290e+04 4.646e-09
  6.66289    176.3 1.310e+04 4.909e-09
  6.68288    176.7 1.333e+04 5.553e-09
  6.70287    176.6 1.362e+04 6.582e-09
  6.71840    176.3 1.392e+04 8.580e-09
  6.72839    175.6 1.487e+04 2.659e-08
  6.74284    175.1 1.556e+04 4.475e-08
  6.76283    174.1 1.612e+04 6.562e-08
  6.78282    172.6 1.625e+04 7.139e-08
  6.80281    171.0 1.613e+04 6.813e-08
  6.81434    170.2 1.561e+04 5.402e-08
  6.82434    170.0 1.641e+04 8.286e-08
  6.84279    170.0 1.544e+04 4.567e-08
  6.86278    169.9 1.443e+04 2.241e-08
  6.88276    169.6 1.358e+04 1.104e-08
  6.90039    169.8 1.293e+04 6.637e-09
  6.92047    169.4 1.299e+04 7.128e-09
  6.95292    170.8 1.240e+04 5.051e-09
  6.99290    172.7 1.203e+04 3.829e-09
  7.03287    174.6 1.185e+04 2.936e-09
  7.07238    176.5 1.176e+04 2.264e-09
  7.09237    177.3 1.182e+04 2.678e-09
  7.11283    179.2 1.176e+04 2.224e-09
  7.15280    181.0 1.170e+04 1.949e-09
  7.19278    182.9 1.164e+04 1.824e-09
  7.23276    184.8 1.164e+04 1.826e-09
  7.26427    186.7 1.164e+04 1.839e-09
  7.28425    187.6 1.167e+04 2.183e-09
  7.31271    189.3 1.172e+04 2.217e-09
  7.35269    191.0 1.180e+04 2.240e-09
  7.39266    192.4 1.183e+04 2.216e-09
  7.43264    193.8 1.188e+04 2.136e-09
  7.45615    195.1 1.193e+04 2.045e-09
  7.47614    195.3 1.194e+04 2.477e-09
  7.51260    196.6 1.197e+04 2.476e-09
  7.54040    197.7 1.203e+04 2.530e-09
  7.56038    198.2 1.220e+04 3.002e-09
  7.59255    199.3 1.231e+04 3.244e-09
  7.62805    200.2 1.247e+04 3.518e-09
  7.64803    199.7 1.256e+04 3.720e-09
  7.67250    200.4 1.259e+04 3.705e-09
  7.71248    201.2 1.261e+04 3.566e-09
  7.75246    202.2 1.260e+04 3.154e-09
  7.79243    203.2 1.253e+04 2.657e-09
  7.81993    204.3 1.239e+04 2.285e-09
  7.83992    204.5 1.226e+04 1.811e-09
  7.87239    205.9 1.223e+04 1.824e-09
  7.91236    207.3 1.217e+04 1.916e-09
  7.95234    208.7 1.212e+04 2.084e-09
  7.99183    209.9 1.206e+04 2.286e-09
  8.01182    210.3 1.199e+04 2.003e-09
  8.03230    211.4 1.193e+04 2.188e-09
  8.07227    212.5 1.188e+04 2.361e-09
  8.11225    213.8 1.182e+04 2.516e-09
  8.15223    215.0 1.177e+04 2.664e-09
  8.18371    216.3 1.171e+04 2.811e-09
  8.20370    216.2 1.169e+04 2.512e-09
  8.23218    217.4 1.164e+04 2.707e-09
  8.27216    218.6 1.159e+04 2.962e-09
  8.31213    219.9 1.154e+04 3.273e-09
  8.35211    221.2 1.151e+04 3.573e-09
  8.37560    222.3 1.144e+04 3.737e-09
  8.39558    222.4 1.145e+04 3.947e-09
  8.43206    223.3 1.143e+04 3.921e-09
  8.47204    224.2 1.133e+04 3.795e-09
  8.51202    225.1 1.120e+04 3.511e-09
  8.54749    226.1 1.107e+04 3.160e-09
  8.56748    226.4 1.091e+04 2.605e-09
  8.59197    227.6 1.081e+04 2.337e-09
  8.63195    228.7 1.076e+04 2.235e-09
  8.67193    229.9 1.074e+04 2.216e-09
  8.71190    231.0 1.073e+04 2.196e-09
  8.73938    232.1 1.070e+04 2.107e-09
  8.75937    233.2 1.069e+04 2.202e-09
  8.79186    234.4 1.067e+04 2.170e-09
  8.83183    235.7 1.062e+04 2.038e-09
  8.87181    237.0 1.054e+04 1.810e-09
  8.91127    238.4 1.045e+04 1.551e-09
  8.93126    239.3 1.048e+04 1.697e-09
  8.95176    240.9 1.037e+04 1.382e-09
  8.99174    242.4 1.020e+04 1.171e-09
  9.03172    244.1 1.008e+04 1.136e-09
  9.07170    245.9 1.006e+04 1.142e-09
  9.10316    247.6 1.002e+04 1.206e-09
  9.12315    248.3 9.980e+03 1.354e-09
  9.15165    249.9 9.965e+03 1.540e-09
  9.19163    251.4 1.001e+04 1.867e-09
  9.23160    252.7 1.009e+04 2.331e-09
  9.27158    253.9 1.019e+04 2.900e-09
  9.29504    255.0 1.027e+04 3.491e-09
  9.31503    255.4 1.023e+04 3.464e-09
  9.35153    256.4 1.032e+04 3.953e-09
  9.39151    257.4 1.025e+04 4.206e-09
  9.43149    258.8 1.025e+04 4.231e-09
  9.46694    260.5 1.025e+04 4.217e-09
  9.48693    260.7 1.001e+04 3.455e-09
  9.51144    262.5 1.003e+04 3.508e-09
  9.55142    264.5 1.014e+04 3.762e-09
  9.57278    265.2 1.023e+04 4.018e-09
  9.58267    265.3 1.019e+04 3.934e-09
  9.60119    266.0 1.024e+04 4.087e-09
  9.62118    266.6 1.030e+04 4.289e-09
  9.64117    267.3 1.038e+04 4.585e-09
  9.65863    268.1 1.048e+04 4.988e-09
  9.66862    267.9 1.044e+04 4.742e-09
  9.68115    268.6 1.058e+04 5.192e-09
  9.70114    269.3 1.074e+04 5.673e-09
  9.72112    269.8 1.091e+04 6.171e-09
  9.74111    269.8 1.109e+04 6.686e-09
  9.75457    269.6 1.134e+04 7.436e-09
  9.76456    269.2 1.103e+04 6.287e-09
  9.78109    268.9 1.118e+04 6.735e-09
  9.80108    268.3 1.150e+04 7.710e-09
  9.82107    267.2 1.202e+04 9.499e-09
  9.84052    265.5 1.257e+04 1.204e-08
  9.85051    266.0 1.198e+04 8.095e-09
  9.86104    264.0 1.304e+04 1.159e-08
  9.88103    261.4 1.447e+04 1.933e-08
  9.89344    259.2 1.548e+04 2.831e-08
  9.89838    259.3 1.543e+04 2.873e-08
  9.90592    257.7 1.620e+04 4.259e-08
  9.91591    255.7 1.726e+04 6.925e-08
  9.92591    253.6 1.820e+04 1.060e-07
  9.93641    249.9 1.902e+04 1.500e-07
  9.94645    252.9 1.871e+04 1.282e-07
  9.95594    248.3 1.968e+04 1.601e-07
  9.96589    244.4 1.987e+04 1.594e-07
  9.98093    239.9 2.008e+04 1.233e-07
 10.00096    232.7 1.970e+04 5.793e-08
 10.02095    224.9 1.795e+04 1.606e-08
 10.03240    215.2 1.419e+04 9.357e-09
 10.04240    212.2 1.557e+04 1.612e-08
 10.06093    205.5 1.456e+04 1.820e-08
 10.08092    203.7 1.418e+04 2.924e-08
 10.10091    203.1 1.529e+04 5.291e-08
 10.11835    202.2 1.659e+04 8.871e-08
 10.12834    200.2 1.644e+04 7.313e-08
 10.14088    197.7 1.725e+04 8.180e-08
 10.16087    193.8 1.789e+04 9.050e-08
 10.18086    189.4 1.829e+04 1.030e-07
 10.20085    185.2 1.854e+04 1.184e-07
 10.21429    181.1 1.855e+04 1.328e-07
 10.21924    181.0 1.873e+04 1.428e-07
 10.22574    179.3 1.896e+04 1.621e-07
 10.23573    177.7 1.890e+04 1.696e-07
 10.24572    176.4 1.884e+04 1.687e-07
 10.26076    175.0 1.853e+04 1.573e-07
 10.28080    174.6 1.786e+04 1.284e-07
 10.30024    174.6 1.709e+04 9.343e-08
 10.31023    174.1 1.690e+04 7.058e-08
 10.32078    174.4 1.564e+04 4.080e-08
 10.34077    174.8 1.429e+04 2.406e-08
 10.36076    175.2 1.316e+04 1.571e-08
 10.38074    176.0 1.242e+04 1.181e-08
 10.39618    177.1 1.203e+04 1.014e-08
 10.40618    177.4 1.191e+04 9.557e-09
 10.43081    179.3 1.154e+04 8.001e-09
 10.47089    182.3 1.128e+04 6.877e-09
 10.51086    184.9 1.116e+04 6.168e-09
 10.55084    187.6 1.114e+04 5.615e-09
 10.57817    189.0 1.114e+04 5.408e-09
 10.59816    190.1 1.091e+04 4.838e-09
 10.63079    192.8 1.097e+04 4.907e-09
 10.67077    195.1 1.111e+04 5.169e-09
 10.71075    197.8 1.134e+04 5.683e-09
 10.75016    200.8 1.165e+04 6.532e-09
 10.77015    201.4 1.155e+04 6.572e-09
 10.79070    204.2 1.194e+04 7.771e-09
 10.82059    204.8 1.210e+04 8.529e-09
 10.84048    205.2 1.234e+04 9.503e-09
 10.85591    205.3 1.276e+04 1.129e-08
 10.86590    206.2 1.266e+04 1.118e-08
 10.88046    206.3 1.313e+04 1.352e-08
 10.90044    206.2 1.368e+04 1.631e-08
 10.92043    205.7 1.423e+04 1.932e-08
 10.94042    204.8 1.471e+04 2.239e-08
 10.95185    203.8 1.503e+04 2.590e-08
 10.96184    205.3 1.454e+04 2.074e-08
 10.98040    204.3 1.460e+04 2.169e-08
 11.00039    203.4 1.465e+04 2.393e-08
 11.02037    202.7 1.474e+04 2.828e-08
 11.03780    202.2 1.486e+04 3.366e-08
 11.04779    203.0 1.452e+04 2.593e-08
 11.06035    202.5 1.483e+04 3.352e-08
 11.08034    202.2 1.505e+04 3.944e-08
 11.10033    201.7 1.502e+04 3.944e-08
 11.12032    201.1 1.469e+04 3.555e-08
 11.13374    200.8 1.407e+04 2.775e-08
 11.14373    200.2 1.516e+04 4.386e-08
 11.16029    200.1 1.443e+04 3.414e-08
 11.18028    200.2 1.355e+04 2.423e-08
 11.20027    200.6 1.275e+04 1.691e-08
 11.21969    201.1 1.224e+04 1.241e-08
 11.22968    200.8 1.245e+04 1.518e-08
 11.24025    201.4 1.202e+04 1.076e-08
 11.26024    201.9 1.193e+04 8.998e-09
 11.28022    202.1 1.190e+04 8.963e-09
 11.30021    202.2 1.187e+04 8.950e-09
 11.31563    202.3 1.180e+04 8.822e-09
 11.32572    202.5 1.190e+04 1.045e-08
 11.35038    202.6 1.202e+04 1.120e-08
 11.39036    202.2 1.215e+04 1.238e-08
 11.43033    201.8 1.218e+04 1.322e-08
 11.47031    201.0 1.214e+04 1.312e-08
 11.49635    199.7 1.186e+04 1.202e-08
 11.50376    200.5 1.175e+04 1.210e-08
 11.51770    200.4 1.198e+04 1.342e-08
 11.55026    200.4 1.133e+04 1.017e-08
 11.59024    200.7 1.064e+04 7.026e-09
 11.63022    201.5 9.886e+03 4.680e-09
 11.66961    202.8 9.284e+03 3.175e-09
 11.68960    203.0 9.760e+03 3.997e-09
 11.71017    204.7 9.134e+03 2.982e-09
 11.75015    206.8 8.640e+03 2.236e-09
 11.79013    209.1 8.324e+03 1.740e-09
 11.83010    211.6 8.149e+03 1.457e-09
 11.86149    214.0 8.073e+03 1.353e-09
 11.88148    214.1 8.242e+03 1.644e-09
 11.91006    216.4 8.200e+03 1.547e-09
 11.95003    218.6 8.244e+03 1.557e-09
 11.99001    220.9 8.308e+03 1.591e-09
 12.02999    223.3 8.392e+03 1.671e-09
 12.05338    226.1 8.879e+03 2.036e-09
 12.07337    225.7 9.186e+03 2.397e-09
 12.10994    228.8 9.678e+03 2.937e-09
 12.13923    229.9 9.738e+03 3.236e-09
 12.14913    229.2 9.812e+03 3.391e-09
 12.15972    229.9 9.773e+03 4.271e-09
 12.17970    230.9 9.878e+03 5.462e-09
 12.19969    231.9 1.015e+04 6.777e-09
 12.21968    232.9 1.062e+04 8.239e-09
 12.23507    233.4 1.127e+04 1.012e-08
 12.24507    231.2 1.280e+04 1.542e-08
 12.25966    231.1 1.347e+04 1.889e-08
 12.27965    230.8 1.415e+04 2.355e-08
 12.29964    230.3 1.479e+04 2.968e-08
 12.31962    229.7 1.538e+04 3.679e-08
 12.33102    229.1 1.587e+04 4.346e-08
 12.34101    226.8 1.571e+04 3.919e-08
 12.35960    226.3 1.562e+04 3.923e-08
 12.37959    225.9 1.550e+04 3.924e-08
 12.39958    225.5 1.533e+04 3.898e-08
 12.41696    225.4 1.503e+04 3.767e-08
 12.42696    224.7 1.421e+04 2.984e-08
 12.43955    225.1 1.393e+04 2.781e-08
 12.45954    225.7 1.375e+04 2.637e-08
 12.47953    226.5 1.366e+04 2.538e-08
 12.49952    227.3 1.364e+04 2.466e-08
 12.51291    228.2 1.366e+04 2.431e-08
 12.52290    228.6 1.363e+04 2.596e-08
 12.53950    229.7 1.384e+04 2.786e-08
 12.55949    230.9 1.411e+04 3.001e-08
 12.57947    232.0 1.435e+04 3.144e-08
 12.59885    233.1 1.435e+04 3.101e-08
 12.60885    233.6 1.457e+04 3.697e-08
 12.61945    234.4 1.456e+04 3.588e-08
 12.63944    235.2 1.449e+04 3.329e-08
 12.65943    236.0 1.435e+04 3.027e-08
 12.67942    236.9 1.421e+04 2.775e-08
 12.69480    237.6 1.412e+04 2.646e-08
 12.70479    237.7 1.404e+04 2.714e-08
 12.71939    238.5 1.403e+04 2.719e-08
 12.73938    239.3 1.405e+04 2.807e-08
 12.75937    240.2 1.420e+04 3.037e-08
 12.77936    241.0 1.440e+04 3.348e-08
 12.79074    241.8 1.457e+04 3.641e-08
 12.80073    242.2 1.445e+04 3.658e-08
 12.81934    242.9 1.460e+04 3.754e-08
 12.83932    243.4 1.459e+04 3.658e-08
 12.85931    244.0 1.451e+04 3.337e-08
 12.87669    244.4 1.433e+04 2.864e-08
 12.88668    244.9 1.409e+04 2.729e-08
 12.89929    245.2 1.384e+04 2.262e-08
 12.91928    245.4 1.358e+04 1.857e-08
 12.93927    245.5 1.342e+04 1.573e-08
 12.95925    245.4 1.340e+04 1.439e-08
 12.97263    245.2 1.356e+04 1.448e-08
 12.98262    246.3 1.311e+04 1.274e-08
 12.99923    245.9 1.324e+04 1.236e-08
 13.01922    245.4 1.336e+04 1.186e-08
 13.03921    244.7 1.345e+04 1.120e-08
 13.05858    243.9 1.347e+04 1.152e-08
 13.06857    245.2 1.341e+04 9.903e-09
 13.07919    244.2 1.350e+04 1.078e-08
 13.09917    243.2 1.363e+04 1.304e-08
 13.11916    242.2 1.374e+04 1.655e-08
 13.13915    241.0 1.389e+04 2.119e-08
 13.15452    239.8 1.409e+04 2.650e-08
 13.16451    240.3 1.438e+04 2.859e-08
 13.17913    238.9 1.455e+04 3.373e-08
 13.19912    237.4 1.477e+04 3.886e-08
 13.21910    235.8 1.467e+04 3.754e-08
 13.23909    234.0 1.442e+04 3.378e-08
 13.25046    231.9 1.403e+04 2.774e-08
 13.26046    232.1 1.412e+04 2.780e-08
 13.27907    229.5 1.352e+04 2.123e-08
 13.29906    226.9 1.277e+04 1.506e-08
 13.31905    224.2 1.195e+04 9.804e-09
 13.33641    221.6 1.108e+04 5.699e-09
 13.34640    222.2 1.133e+04 7.081e-09
 13.35902    220.0 1.058e+04 4.368e-09
 13.37901    219.0 9.832e+03 2.797e-09
 13.39900    218.8 9.569e+03 2.436e-09
 13.42908    220.0 9.144e+03 1.879e-09
 13.46916    220.8 8.462e+03 1.382e-09
 13.50850    221.3 8.152e+03 1.271e-09
 13.52849    221.3 8.320e+03 1.331e-09
 13.54911    222.0 8.199e+03 1.316e-09
 13.58909    222.7 8.245e+03 1.361e-09
 13.62906    223.0 8.384e+03 1.569e-09
 13.66904    222.8 8.668e+03 1.894e-09
 13.70039    222.5 8.841e+03 2.290e-09
 13.72037    222.5 8.814e+03 2.036e-09
 13.74899    221.8 9.065e+03 2.218e-09
 13.78897    220.3 9.320e+03 2.260e-09
 13.82895    219.2 9.481e+03 2.304e-09
 13.85883    218.9 9.595e+03 2.391e-09
 13.87872    218.1 9.721e+03 2.619e-09
 13.89207    216.4 1.008e+04 3.591e-09
 13.90207    216.9 9.968e+03 3.304e-09
 13.91870    214.8 1.069e+04 5.325e-09
 13.93869    212.8 1.156e+04 9.075e-09
 13.95868    210.9 1.222e+04 1.379e-08
 13.97802    209.1 1.253e+04 1.667e-08
 13.98802    209.5 1.250e+04 1.623e-08
 13.99865    207.8 1.255e+04 1.669e-08
 14.01864    205.9 1.246e+04 1.574e-08
 14.03863    203.9 1.209e+04 1.295e-08
 14.05862    201.3 1.176e+04 1.120e-08
 14.07397    198.1 1.184e+04 1.150e-08
 14.08396    199.3 1.185e+04 1.162e-08
 14.09860    195.2 1.231e+04 1.353e-08
 14.11859    189.9 1.393e+04 2.343e-08
 14.13857    185.2 1.554e+04 4.452e-08
 14.15856    181.6 1.639e+04 6.713e-08
 14.16991    178.5 1.644e+04 6.892e-08
 14.17486    179.5 1.599e+04 5.626e-08
 14.18345    178.2 1.593e+04 5.599e-08
 14.19849    176.8 1.589e+04 5.442e-08
 14.21853    174.4 1.530e+04 4.165e-08
 14.23852    170.1 1.413e+04 2.132e-08
 14.25586    164.2 1.209e+04 1.195e-08
 14.26585    166.6 1.275e+04 1.407e-08
 14.27849    160.7 1.154e+04 1.222e-08
 14.29848    156.3 1.162e+04 1.298e-08
 14.31847    151.1 1.328e+04 1.963e-08
 14.33846    142.5 1.756e+04 4.849e-08
 14.35175    138.7 1.854e+04 7.219e-08
 14.36174    141.2 1.841e+04 5.458e-08
 14.37339    136.9 1.959e+04 8.043e-08
 14.38333    133.3 2.035e+04 1.205e-07
 14.39333    129.0 2.040e+04 2.140e-07
 14.39967    125.0 1.996e+04 3.759e-07
 14.40467    127.3 1.995e+04 2.689e-07
 14.41332    123.9 1.948e+04 5.299e-07
 14.42331    120.9 1.965e+04 8.013e-07
 14.43331    116.8 2.060e+04 7.878e-07
 14.44265    111.0 2.175e+04 6.305e-07
 14.44764    115.2 2.002e+04 1.114e-06
 14.45329    109.4 2.181e+04 7.090e-07
 14.46302    101.5 2.374e+04 3.371e-07
 14.46802    102.5 2.331e+04 2.817e-07
 14.47328     95.6 2.276e+04 1.790e-07
 14.48328     90.2 2.114e+04 1.333e-07
 14.49062     88.0 2.015e+04 1.076e-07
 14.49561     91.1 2.083e+04 1.113e-07
 14.50327     87.8 1.933e+04 8.791e-08
 14.51831     81.7 1.724e+04 5.667e-08
 14.53369     79.3 1.528e+04 3.194e-08
 14.54368     82.4 1.558e+04 3.791e-08
 14.55833     80.8 1.406e+04 2.237e-08
 14.57832     79.7 1.318e+04 1.597e-08
 14.59831     79.3 1.294e+04 1.566e-08
 14.61830     79.3 1.300e+04 1.626e-08
 14.62963     79.3 1.326e+04 1.826e-08
 14.63962     80.9 1.288e+04 1.553e-08
 14.65827     80.5 1.336e+04 1.972e-08
 14.67826     80.0 1.399e+04 2.624e-08
 14.69825     79.4 1.459e+04 3.153e-08
 14.71558     78.5 1.464e+04 3.117e-08
 14.72557     79.9 1.515e+04 4.014e-08
 14.73823     79.0 1.511e+04 3.733e-08
 14.75822     78.0 1.463e+04 2.828e-08
 14.77820     76.7 1.370e+04 1.881e-08
 14.79819     75.1 1.262e+04 1.281e-08
 14.81152     74.1 1.182e+04 9.883e-09
 14.82151     74.7 1.248e+04 1.226e-08
 14.83817     74.3 1.179e+04 1.016e-08
 14.85816     74.5 1.149e+04 9.147e-09
 14.87815     75.2 1.129e+04 8.098e-09
 14.89747     75.9 1.108e+04 6.954e-09
 14.90746     76.2 1.126e+04 7.913e-09
 14.91812     77.0 1.100e+04 6.569e-09
 14.93811     77.7 1.079e+04 5.561e-09
 14.95810     78.3 1.063e+04 4.884e-09
 14.97809     78.9 1.049e+04 4.468e-09
 14.99341     79.6 1.038e+04 4.255e-09
 15.00341     80.0 1.036e+04 4.259e-09
 15.01807     80.7 1.027e+04 4.062e-09
 15.03805     81.4 1.020e+04 3.977e-09
 15.05804     82.3 1.017e+04 3.959e-09
 15.07803     83.0 1.013e+04 3.926e-09
 15.08935     83.9 1.008e+04 3.874e-09
 15.09935     84.2 9.884e+03 3.375e-09
 15.11801     85.0 9.868e+03 3.387e-09
 15.13800     85.9 9.887e+03 3.467e-09
 15.15798     86.6 9.906e+03 3.621e-09
 15.17530     87.4 9.933e+03 3.855e-09
 15.18530     87.7 9.813e+03 3.694e-09
 15.19796     88.6 9.905e+03 4.135e-09
 15.21795     89.4 1.005e+04 4.711e-09
 15.23794     90.2 1.020e+04 5.401e-09
 15.25793     91.0 1.041e+04 6.291e-09
 15.27124     91.7 1.075e+04 7.606e-09
 15.28124     92.0 1.074e+04 7.459e-09
 15.29790     92.2 1.121e+04 9.374e-09
 15.31789     92.2 1.169e+04 1.184e-08
 15.33788     92.1 1.225e+04 1.513e-08
 15.35719     91.4 1.287e+04 1.954e-08
 15.36719     91.4 1.277e+04 1.814e-08
 15.37786     90.4 1.329e+04 2.290e-08
 15.39785     89.4 1.359e+04 2.653e-08
 15.41783     88.4 1.358e+04 2.668e-08
 15.43782     87.6 1.342e+04 2.516e-08
 15.45211     86.8 1.312e+04 2.130e-08
 15.45742     85.7 1.318e+04 2.098e-08
 15.46313     85.5 1.298e+04 1.992e-08
 15.47780     84.4 1.280e+04 1.623e-08
 15.49779     83.2 1.264e+04 1.313e-08
 15.51778     82.0 1.245e+04 1.080e-08
 15.53777     81.1 1.219e+04 9.031e-09
 15.54908     80.4 1.187e+04 7.680e-09
 15.55907     81.0 1.181e+04 7.873e-09
 15.57774     80.6 1.151e+04 6.868e-09
 15.59773     80.5 1.126e+04 6.317e-09
 15.61772     80.7 1.109e+04 5.980e-09
 15.63502     81.0 1.099e+04 5.631e-09
 15.64502     81.8 1.103e+04 5.682e-09
 15.65770     82.2 1.096e+04 5.325e-09
 15.67768     82.7 1.095e+04 5.029e-09
 15.69767     83.2 1.097e+04 4.861e-09
 15.71766     83.8 1.100e+04 4.881e-09
 15.73097     84.3 1.112e+04 5.029e-09
 15.74096     85.1 1.116e+04 5.138e-09
 15.75764     85.6 1.131e+04 5.527e-09
 15.78772     85.7 1.168e+04 6.645e-09
 15.82779     86.0 1.222e+04 9.579e-09
 15.85768     85.9 1.260e+04 1.260e-08
 15.87757     85.8 1.282e+04 1.474e-08
 15.89756     85.3 1.301e+04 1.600e-08
 15.91286     84.1 1.322e+04 1.663e-08
 15.92285     85.0 1.365e+04 1.909e-08
 15.93753     82.2 1.460e+04 2.291e-08
 15.95752     78.5 1.576e+04 3.177e-08
 15.97751     75.0 1.623e+04 3.952e-08
 15.99750     72.1 1.590e+04 3.731e-08
 16.00880     70.2 1.498e+04 2.797e-08
 16.01879     69.6 1.586e+04 4.122e-08
 16.03748     68.4 1.446e+04 2.216e-08
 16.05747     66.6 1.340e+04 1.296e-08
 16.07745     64.9 1.288e+04 9.669e-09
 16.09475     64.6 1.263e+04 8.436e-09
 16.10474     64.1 1.260e+04 8.763e-09
 16.11743     64.3 1.232e+04 7.707e-09
 16.13742     64.3 1.203e+04 6.697e-09
 16.15741     64.4 1.193e+04 5.925e-09
 16.17740     64.5 1.180e+04 5.436e-09
 16.19069     64.9 1.174e+04 5.362e-09
 16.20068     64.9 1.175e+04 5.618e-09
 16.21737     65.5 1.181e+04 5.720e-09
 16.23736     65.9 1.194e+04 6.090e-09
 16.25735     66.2 1.209e+04 6.791e-09
 16.27664     66.4 1.229e+04 7.921e-09
 16.28663     66.5 1.228e+04 8.493e-09
 16.29733     66.5 1.253e+04 1.020e-08
 16.31732     66.4 1.287e+04 1.270e-08
 16.33730     66.2 1.324e+04 1.586e-08
 16.35729     65.8 1.352e+04 1.786e-08
 16.37258     65.0 1.354e+04 1.782e-08
 16.38257     65.1 1.353e+04 1.833e-08
 16.39727     64.6 1.324e+04 1.641e-08
 16.41726     64.0 1.265e+04 1.098e-08
 16.43725     63.4 1.203e+04 7.615e-09
 16.45863     61.1 1.123e+04 3.818e-09
 16.47861     61.2 1.088e+04 4.177e-09
 16.50730     59.8 1.013e+04 2.966e-09
 16.54738     58.6 9.857e+03 2.571e-09
 16.58735     57.3 9.599e+03 2.570e-09
 16.61724     57.0 9.473e+03 2.954e-09
 16.63713     56.7 9.697e+03 3.858e-09
 16.65041     55.4 1.041e+04 6.034e-09
 16.66041     55.9 1.042e+04 6.150e-09
 16.67711     53.8 1.159e+04 1.114e-08
 16.69710     51.5 1.291e+04 2.019e-08
 16.71708     49.1 1.388e+04 3.077e-08
 16.73636     45.9 1.448e+04 3.614e-08
 16.74635     46.1 1.437e+04 3.434e-08
 16.75706     41.4 1.467e+04 3.555e-08
 16.77705     36.4 1.440e+04 3.389e-08
 16.79704     33.6 1.317e+04 2.617e-08
 16.81703     31.9 1.173e+04 1.629e-08
 16.83230     29.8 1.053e+04 8.993e-09
 16.84230     30.2 1.049e+04 8.872e-09
 16.85700     26.8 9.619e+03 5.133e-09
 16.87699     23.0 8.914e+03 3.873e-09
 16.89698     21.4 8.685e+03 4.098e-09
 16.91697     19.9 9.030e+03 4.657e-09
 16.92824     18.7 9.570e+03 6.282e-09
 16.93824     19.5 9.806e+03 7.085e-09
 16.95695     17.8 1.056e+04 9.389e-09
 16.97693     16.4 1.127e+04 1.303e-08
 16.99692     15.0 1.193e+04 1.666e-08
 17.01419     13.1 1.253e+04 2.056e-08
 17.02419     12.7 1.346e+04 2.721e-08
 17.03690      9.6 1.437e+04 3.347e-08
 17.05689      6.1 1.450e+04 3.796e-08
 17.07688      4.3 1.452e+04 4.083e-08
 17.09687      3.2 1.463e+04 4.092e-08
 17.11013      1.2 1.424e+04 3.187e-08
 17.12013     -0.8 1.554e+04 4.418e-08
 17.13684     -4.6 1.467e+04 3.565e-08
 17.15683     -7.0 1.436e+04 3.401e-08
 17.17682     -8.0 1.431e+04 3.578e-08
 17.19608     -8.5 1.431e+04 3.736e-08
 17.20608    -10.2 1.537e+04 5.472e-08
 17.21680    -10.1 1.494e+04 4.773e-08
 17.23678    -10.0 1.442e+04 3.854e-08
 17.25677    -10.1 1.384e+04 3.133e-08
 17.27676    -10.3 1.336e+04 2.623e-08
 17.29203    -10.6 1.285e+04 2.188e-08
 17.30202    -11.9 1.224e+04 1.756e-08
 17.31674    -11.8 1.162e+04 1.422e-08
 17.33673    -11.5 1.122e+04 1.197e-08
 17.35672    -11.3 1.095e+04 1.045e-08
 17.37670    -11.3 1.074e+04 9.581e-09
 17.38797    -11.3 1.065e+04 9.348e-09
 17.39796    -11.5 1.001e+04 7.070e-09
 17.41668    -11.2 1.008e+04 7.444e-09
 17.43008    -10.7 1.016e+04 7.951e-09
 17.44008    -10.4 1.013e+04 7.746e-09
 17.45666     -9.5 1.024e+04 8.351e-09
 17.47392     -8.5 1.033e+04 8.719e-09
 17.48391     -8.5 1.005e+04 7.784e-09
 17.49663     -7.4 1.013e+04 8.114e-09
 17.51662     -6.2 1.011e+04 7.932e-09
 17.53661     -5.2 1.006e+04 7.534e-09
 17.55660     -4.2 1.000e+04 6.956e-09
 17.56986     -3.4 9.917e+03 6.355e-09
 17.57985     -3.3 9.999e+03 6.908e-09
 17.59658     -2.6 9.979e+03 6.539e-09
 17.61657     -1.9 1.000e+04 6.441e-09
 17.63655     -1.3 1.005e+04 6.401e-09
 17.65581     -0.6 1.006e+04 6.380e-09
 17.66580     -0.5 1.031e+04 7.577e-09
 17.67653      0.3 1.038e+04 7.796e-09
 17.69652      1.3 1.046e+04 7.979e-09
 17.71651      2.5 1.053e+04 7.631e-09
 17.73650      3.7 1.049e+04 6.948e-09
 17.75175      4.8 1.029e+04 5.934e-09
 17.76174      5.1 1.055e+04 6.843e-09
 17.77647      6.1 1.040e+04 5.864e-09
 17.79646      7.1 1.032e+04 5.154e-09
 17.81645      8.0 1.016e+04 4.628e-09
 17.83644      9.1 1.001e+04 4.303e-09
 17.84769     10.4 9.987e+03 4.210e-09
 17.85768     10.5 1.031e+04 5.149e-09
 17.87642     11.9 1.025e+04 5.115e-09
 17.89640     13.4 1.018e+04 4.788e-09
 17.91639     14.8 1.002e+04 4.517e-09
 17.93364     16.6 9.820e+03 4.560e-09
 17.94363     16.5 1.037e+04 6.744e-09
 17.95637     18.4 1.042e+04 6.076e-09
 17.97636     19.8 1.040e+04 5.579e-09
 17.99635     21.1 1.034e+04 5.514e-09
 18.01633     22.3 1.041e+04 5.943e-09
 18.02958     23.5 1.065e+04 6.225e-09
 18.03957     23.2 1.198e+04 1.281e-08
 18.05631     24.2 1.253e+04 1.489e-08
 18.07630     25.0 1.302e+04 1.799e-08
 18.09629     25.9 1.320e+04 2.043e-08
 18.11553     26.9 1.347e+04 2.373e-08
 18.12552     27.0 1.443e+04 3.758e-08
 18.13627     28.0 1.466e+04 3.936e-08
 18.15625     28.8 1.489e+04 3.996e-08
 18.16845     29.1 1.495e+04 3.934e-08
 18.17340     29.1 1.491e+04 3.928e-08
 18.18114     29.2 1.495e+04 3.947e-08
 18.19618     28.7 1.558e+04 4.723e-08
 18.21147     27.7 1.616e+04 5.857e-08
 18.22147     27.1 1.608e+04 5.233e-08
 18.23621     26.9 1.607e+04 5.860e-08
 18.25620     27.0 1.578e+04 5.537e-08
 18.27618     27.6 1.496e+04 4.158e-08
 18.29617     28.1 1.398e+04 2.655e-08
 18.30741     28.0 1.275e+04 1.719e-08
 18.31741     28.4 1.196e+04 1.212e-08
 18.33615     28.4 1.099e+04 8.439e-09
 18.35614     29.0 1.033e+04 6.096e-09
 18.37613     29.6 1.013e+04 5.004e-09
 18.39336     30.7 1.010e+04 5.115e-09
 18.40336     31.6 9.946e+03 4.495e-09
 18.41610     33.0 1.009e+04 4.871e-09
 18.43609     34.5 1.019e+04 5.244e-09
 18.45608     36.1 1.029e+04 5.524e-09
 18.47607     37.9 1.044e+04 5.756e-09
 18.48930     39.6 1.062e+04 5.793e-09
 18.49930     40.2 1.065e+04 5.807e-09
 18.51605     41.7 1.076e+04 5.736e-09
 18.53603     43.1 1.080e+04 5.696e-09
 18.55602     44.6 1.087e+04 5.831e-09
 18.57525     45.9 1.097e+04 6.119e-09
 18.58525     45.5 1.144e+04 6.968e-09
 18.59600     46.7 1.169e+04 7.703e-09
 18.61599     48.0 1.208e+04 9.064e-09
 18.63598     49.2 1.267e+04 1.122e-08
 18.65596     50.2 1.337e+04 1.435e-08
 18.67119     51.4 1.417e+04 1.917e-08
 18.68119     50.9 1.477e+04 2.599e-08
 18.69594     52.4 1.627e+04 3.316e-08
 18.71088     52.1 1.684e+04 4.031e-08
 18.71907     52.9 1.705e+04 4.680e-08
 18.72406     53.0 1.694e+04 4.612e-08
 18.73082     53.1 1.775e+04 5.751e-08
 18.74082     53.6 1.836e+04 7.058e-08
 18.75081     53.6 1.916e+04 9.445e-08
 18.76081     53.7 1.960e+04 1.262e-07
 18.76704     53.9 1.980e+04 1.618e-07
 18.77204     53.8 2.064e+04 1.457e-07
 18.78080     53.9 2.102e+04 1.775e-07
 18.79079     54.1 2.114e+04 1.926e-07
 18.80078     54.3 2.170e+04 1.910e-07
 18.81001     47.2 2.679e+04 2.693e-07
 18.81501     40.3 3.421e+04 3.546e-07
 18.82077     17.0 2.563e+04 3.382e-06
 18.83077     -7.4 1.846e+04 1.555e-05
 18.84076    -25.7 1.900e+04 9.827e-06
 18.85075    -49.9 3.580e+04 4.236e-07
 18.85798    -84.8 7.391e+04 5.922e-09
 18.86298    -82.0 8.602e+04 5.228e-09
 18.87074    -91.8 7.837e+04 5.505e-09
 18.88074    -93.1 6.150e+04 9.217e-09
 18.89073    -83.3 5.225e+04 1.356e-08
 18.90073    -95.9 4.292e+04 1.974e-08
 18.91577   -108.6 3.188e+04 2.737e-08
 18.93580   -118.1 1.582e+04 3.617e-08
 18.94903   -117.1 1.546e+04 2.990e-08
 18.95902   -118.7 2.386e+04 2.534e-08
 18.97578   -116.9 2.614e+04 2.046e-08
 18.99577   -115.2 2.873e+04 1.659e-08
 19.01576   -114.3 3.152e+04 1.348e-08
 19.03497   -114.5 3.340e+04 1.211e-08
 19.04492   -115.7 3.609e+04 1.791e-08
 19.05064   -116.2 3.498e+04 2.136e-08
 19.06063   -116.5 3.475e+04 2.163e-08
 19.07063   -116.6 3.382e+04 2.335e-08
 19.08062   -117.0 3.414e+04 2.256e-08
 19.08784   -118.2 3.422e+04 2.425e-08
 19.09284   -119.5 2.516e+04 2.050e-07
 19.10061   -121.8 2.550e+04 2.031e-07
 19.11060   -124.1 2.714e+04 1.487e-07
 19.12060   -124.6 2.917e+04 7.041e-08
 19.13059   -125.6 3.246e+04 2.528e-08
 19.13582   -126.1 3.220e+04 1.552e-08
 19.14081   -128.4 2.802e+04 2.793e-08
 19.15058   -128.6 2.559e+04 2.431e-08
 19.16058   -128.9 2.414e+04 2.190e-08
 19.17562   -129.2 2.144e+04 4.117e-08
 19.19565   -127.3 2.085e+04 2.785e-08
 19.21564   -125.2 2.012e+04 1.655e-08
 19.22686   -123.4 1.891e+04 8.907e-09
 19.23685   -124.8 1.926e+04 6.698e-08
 19.25562   -123.1 1.940e+04 3.744e-08
 19.27561   -122.2 1.881e+04 1.840e-08
 19.29560   -121.7 1.597e+04 1.051e-08
 19.31281   -121.0 1.217e+04 1.003e-08
 19.32280   -120.6 1.748e+04 2.607e-08
 19.33557   -120.0 1.392e+04 2.325e-08
 19.35556   -119.0 1.283e+04 2.214e-08
 19.37555   -118.4 1.263e+04 1.892e-08
 19.39554   -118.2 1.322e+04 1.603e-08
 19.40806   -118.3 1.578e+04 1.426e-08
 19.41128   -116.1 1.244e+04 1.353e-08
 19.41874   -118.3 2.007e+04 3.183e-08
 19.43551   -118.2 2.162e+04 4.401e-08
 19.45550   -117.3 2.210e+04 6.480e-08
 19.47045   -116.7 2.113e+04 1.472e-07
 19.48039   -115.7 2.091e+04 1.774e-07
 19.49039   -114.7 2.059e+04 2.252e-07
 19.49960   -114.1 2.061e+04 2.847e-07
 19.50459   -114.5 2.019e+04 5.059e-07
 19.51037   -114.1 2.006e+04 7.289e-07
 19.52037   -114.2 1.926e+04 1.479e-06
 19.53036   -115.3 1.806e+04 4.261e-06
 19.54036   -117.9 1.660e+04 1.438e-05
 19.54754   -122.0 1.603e+04 2.572e-05
 19.55002   -122.4 1.647e+04 1.893e-05
 19.55280   -126.8 1.577e+04 3.403e-05
 19.55780   -131.7 1.543e+04 4.471e-05
 19.56279   -135.6 1.535e+04 4.510e-05
 19.56779   -138.2 1.614e+04 2.588e-05
 19.57150   -140.2 1.692e+04 1.395e-05
 19.57400   -141.5 1.815e+04 7.041e-06
 19.57779   -143.1 1.845e+04 5.942e-06
 19.58278   -144.1 1.863e+04 4.781e-06
 19.59030   -144.6 1.869e+04 3.480e-06
 19.59554   -144.9 2.004e+04 1.175e-06
 19.60054   -146.6 1.983e+04 7.741e-07
 19.61032   -146.3 2.020e+04 3.123e-07
 19.62031   -146.6 1.972e+04 1.554e-07
 19.63030   -147.1 1.853e+04 9.795e-08
 19.63851   -147.3 1.731e+04 7.458e-08
 19.64351   -147.1 1.691e+04 6.548e-08
 19.65029   -146.8 1.625e+04 5.501e-08
 19.66029   -146.0 1.597e+04 4.934e-08
 19.67533   -145.5 1.561e+04 4.420e-08
 19.68658   -143.9 1.435e+04 2.946e-08
 19.69658   -144.2 1.407e+04 2.760e-08
 19.71535   -143.6 1.334e+04 2.147e-08
 19.73534   -143.2 1.310e+04 1.951e-08
 19.75533   -142.7 1.305e+04 1.895e-08
 19.77253   -142.2 1.304e+04 1.882e-08
 19.78252   -143.0 1.385e+04 2.524e-08
 19.79531   -142.4 1.366e+04 2.345e-08
 19.81530   -141.7 1.319e+04 1.954e-08
 19.83528   -140.9 1.257e+04 1.532e-08
 19.85527   -140.2 1.192e+04 1.224e-08
 19.86847   -139.3 1.147e+04 1.001e-08
 19.87847   -140.2 1.124e+04 8.761e-09
 19.89525   -139.2 1.085e+04 7.205e-09
 19.91524   -137.8 1.051e+04 5.864e-09
 19.93523   -136.2 1.014e+04 4.660e-09
 19.95442   -134.2 9.811e+03 3.673e-09
 19.96441   -134.7 9.717e+03 3.564e-09
 19.97520   -132.6 9.670e+03 3.050e-09
 19.99519   -131.6 9.734e+03 2.872e-09
 20.02527   -131.6 9.742e+03 2.750e-09
 20.06535   -130.4 9.610e+03 2.519e-09
 20.10532   -128.6 9.375e+03 2.287e-09
 20.13651   -126.6 9.165e+03 2.123e-09
 20.15649   -127.0 9.160e+03 2.148e-09
 20.18528   -125.1 9.041e+03 2.046e-09
 20.22525   -123.1 8.974e+03 1.993e-09
 20.26523   -121.2 8.944e+03 1.974e-09
 20.30521   -119.2 8.953e+03 1.957e-09
 20.32839   -117.3 8.983e+03 1.921e-09
 20.34838   -117.8 9.028e+03 2.082e-09
 20.38516   -115.8 9.058e+03 2.031e-09
 20.42514   -114.0 9.100e+03 2.015e-09
 20.46512   -112.3 9.218e+03 2.081e-09
 20.50029   -110.8 9.377e+03 2.237e-09
 20.52027   -111.4 9.471e+03 2.454e-09
 20.54507   -110.0 9.574e+03 2.539e-09
 20.58505   -108.7 9.632e+03 2.574e-09
 20.62502   -107.4 9.633e+03 2.564e-09
 20.66500   -105.9 9.523e+03 2.372e-09
 20.69217   -104.3 9.304e+03 2.042e-09
 20.71216   -104.9 9.096e+03 1.937e-09
 20.74495   -103.2 8.866e+03 1.642e-09
 20.78493   -101.5 8.697e+03 1.418e-09
 20.82491    -99.7 8.675e+03 1.342e-09
 20.86407    -98.2 8.700e+03 1.334e-09
 20.88406    -99.5 8.741e+03 1.326e-09
 20.90486    -98.7 9.098e+03 1.560e-09
 20.94484    -98.2 9.321e+03 2.246e-09
 20.98482    -98.2 9.653e+03 3.384e-09
 21.02479    -98.5 1.037e+04 5.386e-09
 21.05595    -99.4 1.149e+04 8.592e-09
 21.07594   -102.2 1.208e+04 1.078e-08
 21.09465   -104.3 1.264e+04 1.399e-08
 21.11455   -105.4 1.279e+04 1.538e-08
 21.13453   -106.3 1.272e+04 1.562e-08
 21.15170   -106.6 1.269e+04 1.542e-08
 21.16169   -107.3 1.269e+04 1.575e-08
 21.17451   -108.7 1.281e+04 1.567e-08
 21.19450   -110.7 1.336e+04 1.740e-08
 21.21449   -112.8 1.396e+04 2.289e-08
 21.23448   -114.7 1.446e+04 3.052e-08
 21.24764   -116.3 1.468e+04 3.508e-08
 21.25763   -117.6 1.490e+04 3.814e-08
 21.27445   -119.1 1.468e+04 3.640e-08
 21.29444   -120.3 1.396e+04 2.705e-08
 21.31443   -121.4 1.310e+04 1.796e-08
 21.33359   -122.4 1.239e+04 1.263e-08
 21.34358   -123.3 1.230e+04 1.146e-08
 21.35441   -124.0 1.214e+04 9.943e-09
 21.37440   -124.7 1.213e+04 9.577e-09
 21.38604   -125.4 1.222e+04 9.849e-09
 21.39603   -124.3 1.210e+04 8.399e-09
 21.41437   -125.2 1.210e+04 9.176e-09
 21.42953   -125.8 1.225e+04 1.072e-08
 21.43953   -125.9 1.219e+04 1.170e-08
 21.45435   -126.6 1.289e+04 1.519e-08
 21.47434   -128.3 1.399e+04 2.087e-08
 21.49433   -131.1 1.520e+04 2.922e-08
 21.51431   -134.2 1.602e+04 3.985e-08
 21.52547   -137.2 1.614e+04 4.492e-08
 21.53547   -140.2 1.719e+04 8.322e-08
 21.55429   -142.3 1.647e+04 6.867e-08
 21.57428   -144.1 1.561e+04 4.681e-08
 21.59427   -145.6 1.481e+04 3.462e-08
 21.61142   -146.7 1.434e+04 3.048e-08
 21.62142   -149.0 1.447e+04 3.323e-08
 21.63425   -149.5 1.415e+04 2.989e-08
 21.65423   -149.8 1.395e+04 2.776e-08
 21.67422   -149.7 1.368e+04 2.461e-08
 21.69421   -149.8 1.332e+04 2.061e-08
 21.70736   -149.7 1.291e+04 1.672e-08
 21.71736   -151.3 1.266e+04 1.394e-08
 21.73419   -151.3 1.229e+04 1.134e-08
 21.75418   -151.1 1.197e+04 9.346e-09
 21.77416   -151.0 1.168e+04 7.918e-09
 21.79331   -150.8 1.141e+04 6.866e-09
 21.80331   -152.2 1.158e+04 7.253e-09
 21.81414   -151.9 1.151e+04 7.142e-09
 21.83413   -151.6 1.146e+04 7.199e-09
 21.85412   -151.0 1.141e+04 7.346e-09
 21.87411   -150.4 1.135e+04 7.532e-09
 21.88925   -149.7 1.131e+04 7.696e-09
 21.89925   -150.8 1.135e+04 8.548e-09
 21.91408   -150.1 1.126e+04 8.354e-09
 21.93407   -149.5 1.121e+04 8.239e-09
 21.95406   -148.8 1.121e+04 8.217e-09
 21.97405   -148.3 1.125e+04 8.390e-09
 21.98520   -148.0 1.133e+04 8.888e-09
 21.99519   -149.3 1.126e+04 8.639e-09
 22.01403   -149.1 1.138e+04 9.479e-09
 22.03401   -148.9 1.152e+04 1.059e-08
 22.05400   -148.9 1.165e+04 1.175e-08
 22.07114   -149.0 1.183e+04 1.297e-08
 22.08114   -150.1 1.179e+04 1.288e-08
 22.09398   -150.5 1.213e+04 1.465e-08
 22.11397   -152.1 1.294e+04 1.900e-08
 22.13396   -154.2 1.425e+04 2.995e-08
 22.15394   -156.3 1.565e+04 5.154e-08
 22.16709   -158.2 1.677e+04 8.195e-08
 22.17708   -158.8 1.710e+04 9.350e-08
 22.19392   -161.1 1.767e+04 1.166e-07
 22.21391   -164.0 1.783e+04 1.236e-07
 22.23390   -167.2 1.769e+04 1.128e-07
 22.25303   -170.6 1.711e+04 8.520e-08
 22.26303   -171.7 1.686e+04 7.649e-08
 22.27388   -175.3 1.586e+04 5.568e-08
 22.29386   -178.5 1.507e+04 4.634e-08
 22.31385   -180.9 1.454e+04 4.079e-08
 22.33384   -182.7 1.408e+04 3.549e-08
 22.34898   -184.4 1.368e+04 3.039e-08
 22.35897   -185.2 1.334e+04 2.678e-08
 22.37382   -186.6 1.297e+04 2.258e-08
 22.39381   -188.0 1.258e+04 1.895e-08
 22.41379   -189.4 1.207e+04 1.554e-08
 22.43378   -190.8 1.143e+04 1.244e-08
 22.44492   -192.1 1.080e+04 1.013e-08
 22.45491   -192.8 1.050e+04 8.931e-09
 22.47376   -193.7 1.030e+04 8.236e-09
 22.49375   -194.4 1.023e+04 7.973e-09
 22.51374   -195.2 1.023e+04 7.942e-09
 22.53087   -196.5 1.048e+04 8.313e-09
 22.54086   -197.1 1.055e+04 8.477e-09
 22.55371   -199.1 1.105e+04 1.002e-08
 22.57370   -201.3 1.155e+04 1.207e-08
 22.59369   -203.8 1.195e+04 1.437e-08
 22.61368   -206.6 1.219e+04 1.621e-08
 22.62681   -209.5 1.227e+04 1.695e-08
 22.63680   -210.4 1.223e+04 1.600e-08
 22.65366   -213.4 1.203e+04 1.478e-08
 22.67364   -216.1 1.158e+04 1.204e-08
 22.69363   -218.1 1.117e+04 9.806e-09
 22.71276   -219.6 1.085e+04 8.313e-09
 22.72285   -219.7 1.067e+04 7.547e-09
 22.74380   -223.0 9.667e+03 4.567e-09
 22.78378   -224.3 9.194e+03 3.341e-09
 22.82375   -225.4 9.024e+03 2.897e-09
 22.86373   -226.2 8.972e+03 2.811e-09
 22.89484   -227.7 8.980e+03 2.817e-09
 22.91483   -227.3 9.144e+03 3.268e-09
 22.94368   -230.2 9.879e+03 4.134e-09
 22.98366   -236.0 1.134e+04 6.944e-09
 23.01355   -238.8 1.174e+04 9.203e-09
 23.03344   -241.4 1.250e+04 1.269e-08
 23.05343   -244.4 1.325e+04 1.845e-08
 23.07341   -247.7 1.371e+04 2.518e-08
 23.08653   -251.0 1.373e+04 2.925e-08
 23.09653   -250.0 1.376e+04 2.757e-08
 23.11339   -253.2 1.372e+04 3.014e-08
 23.13338   -256.0 1.363e+04 3.047e-08
 23.15337   -258.7 1.318e+04 2.725e-08
 23.17248   -261.5 1.267e+04 2.232e-08
 23.18247   -261.1 1.316e+04 2.639e-08
 23.19334   -264.1 1.261e+04 2.112e-08
 23.21333   -267.4 1.220e+04 1.760e-08
 23.23332   -270.8 1.201e+04 1.601e-08
 23.25331   -274.2 1.196e+04 1.553e-08
 23.26842   -277.6 1.194e+04 1.540e-08
 23.27842   -277.2 1.187e+04 1.513e-08
 23.29329   -280.3 1.185e+04 1.509e-08
 23.31328   -283.3 1.180e+04 1.506e-08
 23.33326   -285.8 1.156e+04 1.443e-08
 23.35325   -287.9 1.121e+04 1.289e-08
 23.36401   -289.5 1.079e+04 1.080e-08
 23.36513   -289.3 1.094e+04 1.137e-08
 23.37436   -288.6 1.112e+04 1.247e-08
 23.39323   -290.0 1.062e+04 9.735e-09
 23.41322   -291.0 1.015e+04 7.410e-09
 23.43321   -291.8 9.764e+03 5.621e-09
 23.45031   -292.5 9.495e+03 4.263e-09
 23.46031   -291.7 9.595e+03 4.848e-09
 23.47318   -292.1 9.402e+03 3.849e-09
 23.49317   -292.3 9.290e+03 3.229e-09
 23.51316   -292.2 9.224e+03 2.947e-09
 23.54324   -292.1 9.158e+03 2.792e-09
 23.58331   -292.0 9.010e+03 2.490e-09
 23.62240   -292.2 8.943e+03 2.295e-09
 23.64239   -290.7 9.103e+03 2.450e-09
 23.66327   -291.0 9.097e+03 2.370e-09
 23.70325   -291.5 9.191e+03 2.389e-09
 23.74322   -292.5 9.591e+03 2.748e-09
 23.78320   -293.7 9.960e+03 3.361e-09
 23.81429   -295.3 1.017e+04 3.936e-09
 23.83418   -294.3 1.015e+04 3.754e-09
 23.85296   -295.5 1.023e+04 4.067e-09
 23.87295   -296.2 1.027e+04 4.275e-09
 23.89294   -297.9 1.032e+04 4.775e-09
 23.91004   -299.1 1.039e+04 5.236e-09
 23.92003   -299.0 1.033e+04 5.086e-09
 23.93292   -300.0 1.046e+04 5.454e-09
 23.95291   -301.0 1.059e+04 5.826e-09
 23.97289   -302.1 1.071e+04 6.123e-09
 23.99288   -303.2 1.076e+04 6.246e-09
 24.00598   -304.2 1.076e+04 6.261e-09
 24.01597   -303.6 1.065e+04 5.693e-09
 24.03286   -303.9 1.055e+04 5.550e-09
 24.05285   -303.8 1.042e+04 4.707e-09
 24.07284   -303.4 1.037e+04 3.688e-09
 24.10292   -302.7 1.034e+04 2.930e-09
 24.14299   -303.3 1.028e+04 2.452e-09
 24.17807   -303.3 1.019e+04 2.064e-09
 24.19806   -302.5 1.018e+04 2.055e-09
 24.22295   -301.8 1.016e+04 1.944e-09
 24.26292   -300.8 1.017e+04 1.944e-09
 24.30290   -299.9 1.050e+04 2.402e-09
 24.34288   -299.5 1.104e+04 3.522e-09
 24.36995   -299.5 1.146e+04 4.668e-09
 24.38994   -298.8 1.126e+04 4.039e-09
 24.42283   -299.0 1.152e+04 4.387e-09
 24.46281   -299.4 1.162e+04 4.425e-09
 24.49269   -300.3 1.160e+04 4.133e-09
 24.51258   -301.3 1.159e+04 4.305e-09
 24.53257   -302.2 1.165e+04 4.711e-09
 24.55165   -302.7 1.180e+04 5.250e-09
 24.56164   -302.5 1.176e+04 5.125e-09
 24.57255   -303.1 1.193e+04 5.721e-09
 24.59254   -303.7 1.215e+04 6.413e-09
 24.61253   -304.5 1.240e+04 7.140e-09
 24.63251   -305.3 1.264e+04 7.845e-09
 24.64759   -306.1 1.284e+04 8.513e-09
 24.65759   -306.3 1.281e+04 7.429e-09
 24.67249   -307.3 1.285e+04 7.499e-09
 24.69248   -308.1 1.286e+04 7.435e-09
 24.71247   -308.6 1.275e+04 7.026e-09
 24.73246   -308.9 1.256e+04 6.562e-09
 24.74353   -309.2 1.240e+04 6.395e-09
 24.75353   -309.1 1.214e+04 5.105e-09
 24.78252   -309.6 1.187e+04 4.452e-09
 24.82260   -308.1 1.158e+04 3.926e-09
 24.86258   -305.9 1.144e+04 3.692e-09
 24.90255   -304.0 1.137e+04 3.424e-09
 24.92562   -302.2 1.132e+04 3.193e-09
 24.94561   -300.8 1.142e+04 2.910e-09
 24.98251   -298.9 1.136e+04 2.969e-09
 25.02248   -297.0 1.134e+04 3.144e-09
 25.06246   -295.3 1.141e+04 3.468e-09
 25.09751   -293.7 1.147e+04 3.953e-09
 25.11750   -292.8 1.161e+04 4.366e-09
 25.14241   -291.6 1.169e+04 5.059e-09
 25.18239   -290.6 1.178e+04 5.569e-09
 25.22237   -289.8 1.185e+04 5.772e-09
 25.26235   -289.7 1.184e+04 5.799e-09
 25.28940   -288.8 1.180e+04 5.453e-09
 25.30939   -288.1 1.197e+04 5.525e-09
 25.34230   -287.2 1.190e+04 4.746e-09
 25.38228   -286.2 1.188e+04 4.123e-09
 25.42225   -284.8 1.193e+04 3.749e-09
 25.46130   -283.9 1.186e+04 3.511e-09
 25.48128   -283.9 1.190e+04 3.471e-09
 25.50221   -282.5 1.183e+04 3.373e-09
 25.54218   -281.0 1.178e+04 3.204e-09
 25.58216   -279.4 1.177e+04 2.954e-09
 25.62214   -277.7 1.176e+04 2.604e-09
 25.65318   -275.9 1.172e+04 2.192e-09
 25.67317   -275.3 1.184e+04 1.877e-09
 25.70209   -273.3 1.185e+04 1.551e-09
 25.74207   -271.2 1.192e+04 1.277e-09
 25.78205   -269.1 1.201e+04 1.082e-09
 25.82202   -267.0 1.207e+04 9.704e-10
 25.84506   -264.8 1.213e+04 9.272e-10
 25.86505   -264.0 1.214e+04 9.195e-10
 25.90198   -261.9 1.217e+04 9.154e-10
 25.94195   -260.1 1.232e+04 9.146e-10
 25.98193   -258.5 1.254e+04 9.796e-10
 26.01696   -257.2 1.261e+04 1.161e-09
 26.03695   -256.6 1.267e+04 1.200e-09
 26.06188   -255.4 1.268e+04 1.459e-09
 26.10186   -254.2 1.271e+04 1.760e-09
 26.14184   -253.2 1.277e+04 2.016e-09
 26.18181   -252.2 1.288e+04 2.121e-09
 26.20885   -251.3 1.292e+04 2.135e-09
 26.22883   -250.9 1.298e+04 2.135e-09
 26.26177   -250.1 1.303e+04 2.113e-09
 26.30175   -249.4 1.314e+04 1.978e-09
 26.34172   -248.6 1.326e+04 1.819e-09
 26.38074   -247.9 1.334e+04 1.744e-09
 26.40073   -247.7 1.349e+04 1.897e-09
 26.42168   -247.3 1.354e+04 1.882e-09
 26.46165   -247.0 1.358e+04 1.891e-09
 26.50163   -246.9 1.379e+04 2.049e-09
 26.54161   -247.0 1.380e+04 2.587e-09
 26.57263   -247.1 1.380e+04 3.281e-09
 26.59261   -247.5 1.375e+04 3.172e-09
 26.62156   -247.7 1.384e+04 3.823e-09
 26.66154   -247.9 1.415e+04 4.326e-09
 26.70151   -247.7 1.445e+04 4.474e-09
 26.73140   -248.0 1.468e+04 4.553e-09
 26.75129   -248.5 1.475e+04 4.643e-09
 26.76431   -248.7 1.478e+04 4.666e-09
 26.77431   -248.8 1.476e+04 4.385e-09
 26.79127   -248.8 1.475e+04 4.265e-09
 26.81126   -248.6 1.475e+04 4.256e-09
 26.83124   -248.6 1.481e+04 4.325e-09
 26.85026   -248.7 1.488e+04 5.023e-09
 26.86026   -248.9 1.495e+04 5.052e-09
 26.87122   -248.9 1.496e+04 6.559e-09
 26.89121   -249.0 1.506e+04 8.332e-09
 26.91120   -249.4 1.515e+04 1.010e-08
 26.93119   -250.0 1.514e+04 1.148e-08
 26.94621   -250.7 1.515e+04 1.237e-08
 26.95620   -251.0 1.506e+04 1.127e-08
 26.97116   -251.5 1.501e+04 1.139e-08
 26.99115   -251.9 1.494e+04 1.126e-08
 27.01114   -252.1 1.487e+04 1.101e-08
 27.03113   -252.2 1.483e+04 1.095e-08
 27.04215   -252.2 1.480e+04 1.108e-08
 27.05214   -252.3 1.456e+04 9.060e-09
 27.07111   -252.2 1.452e+04 9.306e-09
 27.09109   -252.2 1.453e+04 9.810e-09
 27.11108   -252.1 1.457e+04 1.047e-08
 27.12810   -252.1 1.459e+04 1.121e-08
 27.13809   -251.9 1.430e+04 9.271e-09
 27.15106   -251.8 1.430e+04 9.607e-09
 27.17105   -251.7 1.433e+04 9.744e-09
 27.19104   -251.6 1.428e+04 1.015e-08
 27.21102   -251.4 1.424e+04 1.072e-08
 27.22404   -251.1 1.424e+04 1.154e-08
 27.23403   -250.2 1.393e+04 8.251e-09
 27.25100   -249.7 1.396e+04 8.661e-09
 27.27099   -249.1 1.401e+04 9.181e-09
 27.29098   -248.6 1.406e+04 9.709e-09
 27.30997   -248.0 1.408e+04 1.013e-08
 27.31997   -247.3 1.377e+04 5.678e-09
 27.33096   -246.7 1.379e+04 5.727e-09
 27.35094   -246.1 1.377e+04 5.826e-09
 27.37093   -245.5 1.374e+04 5.984e-09
 27.39092   -244.8 1.373e+04 6.214e-09
 27.40593   -244.1 1.374e+04 6.515e-09
 27.41592   -243.8 1.357e+04 4.970e-09
 27.43090   -243.1 1.358e+04 5.194e-09
 27.45089   -242.3 1.359e+04 5.482e-09
 27.47087   -241.7 1.364e+04 5.650e-09
 27.49086   -240.9 1.369e+04 5.863e-09
 27.50187   -240.3 1.374e+04 5.971e-09
 27.51196   -240.7 1.338e+04 4.519e-09
 27.54103   -239.3 1.348e+04 4.609e-09
 27.58101   -238.0 1.357e+04 4.645e-09
 27.62098   -236.7 1.361e+04 4.643e-09
 27.66096   -235.3 1.363e+04 4.598e-09
 27.68396   -233.7 1.364e+04 4.383e-09
 27.70394   -232.5 1.338e+04 3.104e-09
 27.74091   -230.6 1.346e+04 3.034e-09
 27.78089   -228.2 1.353e+04 2.997e-09
 27.82087   -225.8 1.366e+04 2.912e-09
 27.85075   -223.4 1.370e+04 2.685e-09
 27.86565   -222.6 1.375e+04 2.698e-09
 27.87574   -222.9 1.362e+04 2.402e-09
 27.90082   -220.8 1.361e+04 2.409e-09
 27.94080   -218.5 1.351e+04 2.395e-09
 27.98078   -216.0 1.340e+04 2.334e-09
 28.02075   -213.4 1.339e+04 2.292e-09
 28.04774   -210.8 1.343e+04 2.281e-09
 28.06772   -210.4 1.329e+04 2.075e-09
 28.10071   -207.7 1.339e+04 2.174e-09
 28.14068   -205.3 1.354e+04 2.369e-09
 28.18066   -203.0 1.368e+04 2.775e-09
 28.21055   -201.1 1.372e+04 3.048e-09
 28.22943   -200.5 1.371e+04 3.552e-09
 28.23952   -201.0 1.357e+04 2.821e-09
 28.25052   -199.4 1.367e+04 3.610e-09
 28.27041   -198.8 1.369e+04 4.337e-09
 28.29040   -198.2 1.372e+04 5.185e-09
 28.31039   -197.7 1.377e+04 6.143e-09
 28.32537   -197.4 1.385e+04 7.102e-09
 28.33537   -197.3 1.368e+04 5.677e-09
 28.35037   -197.1 1.374e+04 6.292e-09
 28.37036   -196.9 1.382e+04 7.015e-09
 28.39034   -196.9 1.389e+04 7.319e-09
 28.41033   -197.2 1.391e+04 7.391e-09
 28.42132   -197.4 1.387e+04 7.322e-09
 28.43131   -196.8 1.376e+04 6.101e-09
 28.45031   -196.9 1.363e+04 5.789e-09
 28.47030   -196.8 1.345e+04 5.254e-09
 28.49029   -196.6 1.327e+04 4.756e-09
 28.50726   -196.2 1.316e+04 4.321e-09
 28.51726   -195.7 1.316e+04 4.011e-09
 28.54035   -195.7 1.310e+04 3.905e-09
 28.58043   -194.0 1.311e+04 3.812e-09
 28.60340   -193.0 1.323e+04 3.914e-09
 28.62339   -191.3 1.300e+04 3.077e-09
 28.66038   -190.4 1.311e+04 3.584e-09
 28.70036   -189.6 1.326e+04 4.429e-09
 28.73024   -188.2 1.330e+04 5.095e-09
 28.75014   -188.1 1.336e+04 5.829e-09
 28.77520   -188.0 1.333e+04 6.673e-09
 28.79529   -185.1 1.321e+04 5.864e-09
 28.82029   -184.4 1.348e+04 8.536e-09
 28.86027   -184.0 1.367e+04 1.017e-08
 28.90024   -184.8 1.369e+04 1.063e-08
 28.94022   -185.9 1.333e+04 8.501e-09
 28.96718   -187.6 1.264e+04 5.880e-09
 28.98717   -184.8 1.344e+04 1.019e-08
 29.01008   -186.7 1.272e+04 6.526e-09
 29.02997   -187.3 1.260e+04 6.068e-09
 29.04996   -188.5 1.232e+04 5.241e-09
 29.06293   -188.8 1.225e+04 5.087e-09
 29.07292   -188.9 1.225e+04 5.179e-09
 29.08994   -189.6 1.210e+04 4.861e-09
 29.10993   -189.8 1.204e+04 4.790e-09
 29.12992   -190.2 1.191e+04 4.659e-09
 29.14888   -190.3 1.185e+04 4.632e-09
 29.15887   -191.0 1.200e+04 6.052e-09
 29.16989   -191.1 1.186e+04 5.967e-09
 29.18988   -190.9 1.170e+04 5.788e-09
 29.20987   -190.4 1.156e+04 5.561e-09
 29.22986   -189.7 1.145e+04 5.319e-09
 29.24482   -189.1 1.136e+04 5.038e-09
 29.25481   -189.4 1.138e+04 5.329e-09
 29.26984   -188.7 1.126e+04 4.864e-09
 29.28795   -187.8 1.112e+04 4.238e-09
 29.29795   -187.7 1.104e+04 4.091e-09
 29.30981   -187.0 1.097e+04 3.561e-09
 29.33087   -186.4 1.090e+04 3.208e-09
 29.35095   -186.7 1.075e+04 2.920e-09
 29.37997   -184.9 1.047e+04 2.346e-09
 29.41994   -182.6 1.010e+04 1.896e-09
 29.45992   -180.2 9.982e+03 1.762e-09
 29.49990   -178.0 1.000e+04 1.754e-09
 29.52285   -176.3 1.030e+04 2.149e-09
 29.54284   -175.8 1.017e+04 2.060e-09
 29.57985   -174.7 1.062e+04 3.281e-09
 29.60870   -173.8 1.086e+04 4.526e-09
 29.61859   -173.6 1.083e+04 4.679e-09
 29.62963   -173.6 1.086e+04 5.418e-09
 29.64962   -173.8 1.091e+04 6.461e-09
 29.66960   -174.2 1.087e+04 6.686e-09
 29.68959   -174.3 1.079e+04 6.715e-09
 29.70454   -174.3 1.071e+04 6.502e-09
 29.71454   -173.6 1.066e+04 6.694e-09
 29.72957   -173.4 1.059e+04 6.196e-09
 29.74956   -173.3 1.051e+04 5.577e-09
 29.76955   -173.0 1.042e+04 4.849e-09
 29.78954   -172.7 1.034e+04 4.087e-09
 29.80048   -172.5 1.024e+04 3.420e-09
 29.81048   -171.7 1.024e+04 3.737e-09
 29.82951   -171.5 1.014e+04 3.134e-09
 29.85959   -171.3 1.007e+04 2.762e-09
 29.88663   -169.5 9.876e+03 2.518e-09
 29.90662   -168.1 9.937e+03 2.775e-09
 29.93964   -166.3 9.725e+03 2.563e-09
 29.97962   -164.4 9.664e+03 2.522e-09
 30.01960   -162.7 9.653e+03 2.669e-09
 30.05852   -161.3 9.779e+03 2.954e-09
 30.07851   -160.2 9.700e+03 2.834e-09
 30.09955   -159.1 9.801e+03 2.921e-09
 30.13953   -158.1 9.868e+03 2.935e-09
 30.17951   -157.2 9.872e+03 2.882e-09
 30.21948   -156.3 9.749e+03 2.574e-09
 30.25041   -155.1 9.584e+03 2.274e-09
 30.27040   -154.1 9.659e+03 2.568e-09
 30.29944   -152.8 9.617e+03 2.365e-09
 30.33941   -151.7 9.638e+03 2.356e-09
 30.37939   -151.1 1.004e+04 2.916e-09
 30.41937   -150.9 1.050e+04 4.194e-09
 30.44229   -151.0 1.084e+04 5.553e-09
 30.46228   -150.5 1.098e+04 5.916e-09
 30.49932   -151.7 1.131e+04 7.337e-09
 30.53930   -153.5 1.148e+04 7.833e-09
 30.56918   -154.9 1.150e+04 8.065e-09
 30.58907   -156.1 1.163e+04 8.214e-09
 30.60906   -157.3 1.184e+04 8.762e-09
 30.62399   -158.6 1.209e+04 9.644e-09
 30.63398   -158.3 1.209e+04 9.416e-09
 30.64904   -159.6 1.234e+04 1.007e-08
 30.66903   -160.9 1.255e+04 1.058e-08
 30.68902   -162.2 1.270e+04 1.075e-08
 30.70900   -163.5 1.279e+04 1.061e-08
 30.71993   -164.7 1.289e+04 9.326e-09
 30.72992   -164.4 1.275e+04 8.665e-09
 30.74898   -165.4 1.268e+04 7.390e-09
 30.76897   -166.2 1.256e+04 6.292e-09
 30.78896   -166.7 1.253e+04 5.434e-09
 30.80588   -167.1 1.257e+04 4.856e-09
 30.81587   -167.1 1.263e+04 4.923e-09
 30.82894   -167.5 1.270e+04 4.677e-09
 30.85902   -167.5 1.268e+04 4.579e-09
 30.89909   -166.7 1.268e+04 4.585e-09
 30.93907   -165.5 1.293e+04 5.072e-09
 30.97797   -164.3 1.310e+04 6.167e-09
 30.99796   -164.2 1.329e+04 8.903e-09
 31.01902   -163.0 1.340e+04 1.074e-08
 31.05900   -161.9 1.347e+04 1.152e-08
 31.09897   -160.8 1.348e+04 1.167e-08
 31.13895   -159.8 1.342e+04 1.154e-08
 31.16985   -158.4 1.343e+04 1.135e-08
 31.18974   -157.9 1.387e+04 1.567e-08
 31.20872   -157.3 1.393e+04 1.636e-08
 31.22870   -156.8 1.393e+04 1.661e-08
 31.24869   -156.3 1.388e+04 1.647e-08
 31.26560   -155.9 1.378e+04 1.559e-08
 31.27284   -155.9 1.388e+04 1.676e-08
 31.27592   -156.2 1.388e+04 1.659e-08
 31.29876   -155.7 1.371e+04 1.401e-08
 31.33884   -153.9 1.350e+04 1.125e-08
 31.36174   -152.2 1.313e+04 8.075e-09
 31.38173   -151.9 1.308e+04 8.096e-09
 31.41879   -149.6 1.280e+04 5.751e-09
 31.45877   -147.4 1.257e+04 4.284e-09
 31.49874   -145.3 1.234e+04 3.367e-09
 31.53363   -143.1 1.215e+04 2.832e-09
 31.55362   -142.5 1.225e+04 3.486e-09
 31.57870   -140.4 1.211e+04 3.214e-09
 31.61867   -138.4 1.206e+04 3.106e-09
 31.65865   -136.6 1.202e+04 3.218e-09
 31.69863   -135.0 1.203e+04 3.790e-09
 31.72552   -133.5 1.207e+04 4.807e-09
 31.74551   -133.2 1.214e+04 4.268e-09
 31.77858   -131.9 1.214e+04 4.965e-09
 31.81856   -130.5 1.215e+04 5.940e-09
 31.84844   -129.2 1.207e+04 6.313e-09
 31.86834   -128.6 1.207e+04 7.116e-09
 31.88832   -127.7 1.206e+04 7.823e-09
 31.90721   -127.6 1.212e+04 8.228e-09
 31.91721   -127.3 1.211e+04 6.304e-09
 31.93839   -126.2 1.216e+04 7.587e-09
 31.97847   -124.3 1.232e+04 8.967e-09
 32.00325   -123.2 1.235e+04 9.251e-09
 32.01315   -123.0 1.226e+04 8.856e-09
 32.02824   -122.7 1.252e+04 1.019e-08
 32.04823   -122.5 1.293e+04 1.280e-08
 32.06822   -122.6 1.347e+04 1.684e-08
 32.08821   -123.0 1.422e+04 2.317e-08
 32.09910   -124.1 1.509e+04 3.355e-08
 32.10909   -126.0 1.726e+04 8.321e-08
 32.12819   -128.5 1.771e+04 1.168e-07
 32.14817   -131.3 1.767e+04 1.263e-07
 32.16816   -133.0 1.712e+04 1.198e-07
 32.18505   -133.7 1.639e+04 9.163e-08
 32.19504   -135.2 1.691e+04 1.125e-07
 32.20814   -135.4 1.565e+04 6.276e-08
 32.22813   -135.6 1.470e+04 3.909e-08
 32.24812   -135.3 1.401e+04 2.708e-08
 32.26810   -134.4 1.363e+04 2.136e-08
 32.28099   -133.6 1.354e+04 1.849e-08
 32.29098   -134.5 1.336e+04 8.652e-09
 32.30808   -133.9 1.332e+04 8.103e-09
 32.32807   -133.4 1.328e+04 8.108e-09
 32.34806   -132.8 1.324e+04 8.591e-09
 32.36694   -132.3 1.320e+04 9.155e-09
 32.37693   -132.8 1.289e+04 6.043e-09
 32.38803   -132.1 1.295e+04 6.636e-09
 32.40802   -131.6 1.298e+04 7.231e-09
 32.42801   -131.2 1.302e+04 7.836e-09
 32.44800   -131.0 1.306e+04 8.657e-09
 32.46288   -131.0 1.313e+04 9.960e-09
 32.47287   -131.3 1.314e+04 9.680e-09
 32.48798   -131.3 1.335e+04 1.268e-08
 32.50797   -131.5 1.364e+04 1.654e-08
 32.52795   -131.9 1.391e+04 2.027e-08
 32.54794   -132.6 1.405e+04 2.246e-08
 32.55882   -133.6 1.408e+04 2.293e-08
 32.56882   -134.4 1.427e+04 2.365e-08
 32.58792   -135.4 1.407e+04 2.232e-08
 32.60791   -136.4 1.391e+04 2.105e-08
 32.62790   -137.4 1.378e+04 1.990e-08
 32.64477   -138.6 1.370e+04 1.885e-08
 32.65476   -138.6 1.368e+04 1.890e-08
 32.66787   -139.9 1.366e+04 1.806e-08
 32.68786   -141.5 1.377e+04 1.802e-08
 32.70785   -143.7 1.401e+04 2.144e-08
 32.72784   -145.9 1.452e+04 2.850e-08
 32.74071   -147.9 1.497e+04 3.868e-08
 32.75071   -147.6 1.522e+04 4.263e-08
 32.76782   -149.8 1.537e+04 4.875e-08
 32.78780   -152.0 1.526e+04 4.879e-08
 32.80779   -154.1 1.465e+04 3.613e-08
 32.82666   -156.6 1.388e+04 2.082e-08
 32.83665   -156.7 1.404e+04 2.222e-08
 32.84777   -159.6 1.339e+04 1.394e-08
 32.86776   -162.5 1.310e+04 1.153e-08
 32.88775   -164.9 1.305e+04 1.116e-08
 32.90773   -167.2 1.303e+04 1.157e-08
 32.92260   -169.4 1.328e+04 1.588e-08
 32.93260   -170.2 1.365e+04 2.208e-08
 32.94771   -171.6 1.411e+04 2.940e-08
 32.96770   -173.1 1.459e+04 3.656e-08
 32.98769   -174.8 1.496e+04 4.195e-08
 33.00768   -176.9 1.508e+04 4.330e-08
 33.01854   -178.9 1.499e+04 4.205e-08
 33.02854   -179.8 1.465e+04 3.241e-08
 33.04765   -181.2 1.416e+04 2.528e-08
 33.06764   -182.3 1.371e+04 1.922e-08
 33.08763   -183.2 1.327e+04 1.458e-08
 33.10449   -183.8 1.289e+04 1.112e-08
 33.11449   -184.2 1.273e+04 9.134e-09
 33.12761   -184.5 1.250e+04 7.505e-09
 33.14760   -184.6 1.231e+04 6.374e-09
 33.16758   -184.6 1.216e+04 5.635e-09
 33.18757   -184.4 1.203e+04 5.187e-09
 33.20043   -184.0 1.193e+04 4.958e-09
 33.21043   -184.3 1.201e+04 4.816e-09
 33.22755   -183.7 1.194e+04 4.781e-09
 33.24390   -183.1 1.190e+04 4.760e-09
 33.25390   -183.2 1.190e+04 4.676e-09
 33.26753   -182.4 1.182e+04 4.511e-09
 33.28638   -181.5 1.175e+04 4.372e-09
 33.29638   -181.8 1.176e+04 4.377e-09
 33.30750   -180.8 1.174e+04 4.182e-09
 33.32749   -179.7 1.177e+04 3.880e-09
 33.34748   -178.6 1.180e+04 3.498e-09
 33.36747   -177.5 1.181e+04 3.179e-09
 33.38233   -176.3 1.175e+04 3.081e-09
 33.39242   -177.9 1.184e+04 2.730e-09
 33.41764   -175.1 1.170e+04 2.524e-09
 33.45761   -172.3 1.165e+04 2.464e-09
 33.49759   -169.5 1.165e+04 2.597e-09
 33.53757   -166.9 1.166e+04 3.239e-09
 33.56441   -164.6 1.164e+04 3.969e-09
 33.58440   -164.5 1.176e+04 4.063e-09
 33.61752   -162.4 1.171e+04 4.499e-09
 33.64741   -160.6 1.151e+04 4.441e-09
 33.66016   -159.4 1.133e+04 4.291e-09
 33.67015   -159.6 1.135e+04 4.314e-09
 33.68728   -158.2 1.123e+04 3.929e-09
 33.70727   -156.8 1.111e+04 3.499e-09
 33.72726   -155.3 1.103e+04 3.123e-09
 33.74611   -154.0 1.097e+04 2.866e-09
 33.75610   -154.0 1.106e+04 2.928e-09
 33.77733   -152.5 1.100e+04 2.830e-09
 33.81740   -149.2 1.081e+04 2.775e-09
 33.85738   -146.2 1.080e+04 2.845e-09
 33.89736   -143.5 1.090e+04 3.363e-09
 33.92724   -141.8 1.049e+04 3.596e-09
 33.93799   -140.8 1.034e+04 3.829e-09
 33.94798   -140.6 1.046e+04 4.182e-09
 33.96712   -139.5 1.039e+04 4.387e-09
 33.98711   -138.5 1.036e+04 4.457e-09
 34.00710   -137.4 1.033e+04 4.478e-09
 34.02394   -136.2 1.016e+04 4.490e-09
 34.03393   -136.2 1.036e+04 4.962e-09
 34.04708   -135.0 1.021e+04 4.874e-09
 34.06707   -133.8 1.010e+04 4.678e-09
 34.08705   -132.6 1.002e+04 4.432e-09
 34.10704   -131.3 9.987e+03 4.221e-09
 34.11988   -129.9 1.018e+04 4.157e-09
 34.12987   -129.6 1.001e+04 4.537e-09
 34.14702   -128.0 1.015e+04 4.523e-09
 34.16701   -126.4 1.057e+04 4.800e-09
 34.18700   -124.8 1.153e+04 6.017e-09
 34.20583   -122.9 1.306e+04 8.514e-09
 34.21582   -124.2 1.390e+04 1.063e-08
 34.22697   -123.3 1.578e+04 1.737e-08
 34.23784   -122.2 1.708e+04 2.468e-08
 34.24279   -121.2 1.556e+04 1.680e-08
 34.25186   -122.0 1.620e+04 1.775e-08
 34.25870   -125.7 2.117e+04 3.089e-08
 34.26370   -130.0 2.093e+04 8.184e-08
 34.27185   -133.7 2.047e+04 2.991e-07
 34.28184   -136.9 1.955e+04 9.429e-07
 34.29184   -141.0 1.899e+04 1.881e-06
 34.30167   -146.9 1.897e+04 2.274e-06
 34.30667   -152.2 1.897e+04 1.940e-06
 34.31183   -159.0 1.965e+04 9.607e-07
 34.32182   -165.7 1.986e+04 3.685e-07
 34.33181   -170.7 1.864e+04 2.051e-07
 34.34181   -173.6 1.773e+04 1.587e-07
 34.34964   -175.2 1.740e+04 1.370e-07
 34.35464   -174.5 1.740e+04 1.372e-07
 34.36180   -175.4 1.723e+04 1.241e-07
 34.37179   -176.4 1.713e+04 1.167e-07
 34.38683   -178.1 1.695e+04 1.063e-07
 34.39771   -180.0 1.676e+04 9.935e-08
 34.40771   -178.0 1.639e+04 9.133e-08
 34.42686   -179.6 1.605e+04 8.538e-08
 34.44685   -180.4 1.567e+04 7.757e-08
 34.46683   -180.9 1.520e+04 6.670e-08
 34.48366   -181.0 1.463e+04 5.394e-08
 34.49366   -179.4 1.459e+04 5.114e-08
 34.50681   -179.4 1.380e+04 3.824e-08
 34.52680   -179.2 1.299e+04 2.847e-08
 34.54679   -179.0 1.226e+04 2.226e-08
 34.56678   -178.3 1.163e+04 1.785e-08
 34.57960   -177.2 1.106e+04 1.444e-08
 34.58960   -176.4 1.101e+04 1.383e-08
 34.60675   -175.1 1.064e+04 1.201e-08
 34.62674   -173.8 1.039e+04 1.071e-08
 34.64673   -172.3 1.022e+04 9.750e-09
 34.66555   -170.8 1.011e+04 9.065e-09
 34.67555   -170.1 1.026e+04 9.894e-09
 34.68671   -168.4 1.022e+04 9.492e-09
 34.70670   -166.7 1.022e+04 9.215e-09
 34.72668   -165.0 1.023e+04 9.022e-09
 34.74667   -163.4 1.023e+04 8.904e-09
 34.76149   -161.6 1.035e+04 8.865e-09
 34.77149   -161.0 1.057e+04 1.005e-08
 34.78665   -159.2 1.060e+04 9.751e-09
 34.80664   -157.5 1.071e+04 9.687e-09
 34.82663   -155.9 1.080e+04 9.847e-09
 34.84662   -154.4 1.091e+04 1.002e-08
 34.85744   -152.7 1.102e+04 1.023e-08
 34.86743   -152.2 1.126e+04 1.089e-08
 34.88659   -150.5 1.136e+04 1.106e-08
 34.90658   -148.9 1.144e+04 1.130e-08
 34.92657   -147.3 1.150e+04 1.164e-08
 34.94338   -145.4 1.160e+04 1.218e-08
 34.95338   -144.6 1.175e+04 1.257e-08
 34.96655   -142.8 1.182e+04 1.297e-08
 34.98653   -141.1 1.191e+04 1.336e-08
 35.00652   -139.6 1.202e+04 1.359e-08
 35.02651   -137.9 1.223e+04 1.425e-08
 35.03933   -136.4 1.260e+04 1.651e-08
 35.04932   -135.4 1.256e+04 1.554e-08
 35.06649   -134.1 1.302e+04 1.947e-08
 35.08648   -133.0 1.372e+04 2.694e-08
 35.10647   -132.2 1.457e+04 3.993e-08
 35.12527   -131.9 1.554e+04 6.079e-08
 35.13527   -131.4 1.520e+04 4.770e-08
 35.14644   -131.7 1.640e+04 8.159e-08
 35.16643   -132.6 1.729e+04 1.243e-07
 35.17819   -133.5 1.792e+04 1.681e-07
 35.18314   -133.3 1.786e+04 1.651e-07
 35.19132   -134.2 1.803e+04 1.791e-07
 35.20131   -135.3 1.821e+04 1.942e-07
 35.21131   -136.2 1.828e+04 1.990e-07
 35.22112   -137.0 1.826e+04 2.001e-07
 35.22612   -137.5 1.842e+04 2.185e-07
 35.22678   -138.2 1.831e+04 1.809e-07
 35.23178   -139.5 1.840e+04 1.746e-07
 35.24634   -140.8 1.783e+04 1.274e-07
 35.26637   -140.6 1.708e+04 7.738e-08
 35.28636   -140.2 1.572e+04 3.436e-08
 35.30635   -139.1 1.480e+04 1.772e-08
 35.31716   -137.9 1.409e+04 1.117e-08
 35.32715   -138.4 1.404e+04 1.276e-08
 35.34633   -137.1 1.376e+04 9.952e-09
 35.36632   -135.3 1.341e+04 8.326e-09
 35.38630   -133.3 1.317e+04 7.313e-09
 35.40311   -131.3 1.308e+04 6.722e-09
 35.41310   -131.3 1.381e+04 1.233e-08
 35.42628   -129.3 1.382e+04 1.089e-08
 35.44627   -127.6 1.379e+04 9.761e-09
 35.46626   -125.9 1.384e+04 9.063e-09
 35.48625   -124.1 1.390e+04 8.979e-09
 35.49905   -122.5 1.416e+04 9.603e-09
 35.50904   -123.3 1.567e+04 3.312e-08
 35.52622   -122.3 1.599e+04 3.937e-08
 35.54621   -121.5 1.619e+04 4.671e-08
 35.56620   -120.6 1.635e+04 5.528e-08
 35.58500   -119.7 1.656e+04 6.665e-08
 35.59499   -120.8 1.731e+04 1.200e-07
 35.60618   -120.3 1.744e+04 1.277e-07
 35.62617   -120.1 1.752e+04 1.334e-07
 35.64615   -120.1 1.750e+04 1.329e-07
 35.66614   -120.0 1.731e+04 1.233e-07
 35.68094   -120.0 1.704e+04 1.049e-07
 35.69093   -121.3 1.633e+04 6.415e-08
 35.70612   -121.1 1.567e+04 4.226e-08
 35.72611   -120.7 1.503e+04 2.752e-08
 35.74610   -120.4 1.446e+04 1.862e-08
 35.76608   -119.9 1.403e+04 1.369e-08
 35.77688   -119.2 1.371e+04 1.105e-08
 35.78688   -119.5 1.332e+04 9.155e-09
 35.81615   -118.1 1.313e+04 8.178e-09
 35.85623   -115.3 1.305e+04 7.430e-09
 35.89620   -112.8 1.307e+04 6.878e-09
 35.93618   -110.5 1.318e+04 6.591e-09
 35.95897   -108.8 1.330e+04 6.510e-09
 35.97896   -109.2 1.359e+04 8.947e-09
 36.01614   -108.6 1.378e+04 1.126e-08
 36.05611   -108.3 1.393e+04 1.294e-08
 36.09609   -107.9 1.397e+04 1.291e-08
 36.13086   -106.9 1.393e+04 1.084e-08
 36.15085   -109.0 1.403e+04 1.152e-08
 36.17604   -107.0 1.378e+04 7.569e-09
 36.21602   -104.6 1.368e+04 4.922e-09
 36.25600   -102.2 1.375e+04 3.553e-09
 36.29597    -99.8 1.382e+04 3.040e-09
 36.32275    -97.5 1.385e+04 2.905e-09
 36.34274    -98.2 1.388e+04 3.092e-09
 36.37593    -96.0 1.393e+04 3.066e-09
 36.41590    -93.8 1.393e+04 3.091e-09
 36.45588    -91.5 1.383e+04 3.163e-09
 36.49464    -89.4 1.368e+04 3.204e-09
 36.51463    -89.5 1.388e+04 3.007e-09
 36.53584    -87.4 1.366e+04 2.948e-09
 36.57581    -85.2 1.346e+04 2.833e-09
 36.61579    -82.9 1.325e+04 2.658e-09
 36.65577    -80.4 1.312e+04 2.479e-09
 36.68653    -77.8 1.307e+04 2.270e-09
 36.70652    -77.8 1.315e+04 2.551e-09
 36.73572    -75.4 1.312e+04 2.269e-09
 36.77570    -72.9 1.300e+04 2.013e-09
 36.81567    -70.3 1.290e+04 1.772e-09
 36.85565    -67.7 1.281e+04 1.540e-09
 36.87841    -64.9 1.272e+04 1.336e-09
 36.89840    -64.9 1.275e+04 1.524e-09
 36.93560    -62.0 1.267e+04 1.340e-09
 36.97558    -59.1 1.262e+04 1.165e-09
 37.01556    -56.0 1.259e+04 1.014e-09
 37.05031    -52.9 1.257e+04 9.084e-10
 37.07030    -52.8 1.265e+04 9.863e-10
 37.09551    -49.7 1.263e+04 9.190e-10
 37.13549    -46.6 1.261e+04 8.971e-10
 37.17547    -43.4 1.264e+04 9.171e-10
 37.21544    -40.4 1.261e+04 1.008e-09
 37.24219    -37.4 1.255e+04 1.134e-09
 37.26218    -37.5 1.257e+04 1.156e-09
 37.29540    -34.7 1.254e+04 1.330e-09
 37.33537    -32.0 1.253e+04 1.660e-09
 37.37535    -29.3 1.237e+04 2.385e-09
 37.41409    -26.4 1.243e+04 3.494e-09
 37.43408    -26.7 1.244e+04 3.171e-09
 37.45530    -23.8 1.249e+04 3.866e-09
 37.49528    -21.7 1.241e+04 3.676e-09
 37.53526    -19.6 1.247e+04 2.940e-09
 37.57523    -17.8 1.240e+04 2.655e-09
 37.60597    -15.5 1.225e+04 2.717e-09
 37.62596    -15.4 1.228e+04 2.003e-09
 37.65519    -13.1 1.222e+04 1.912e-09
 37.69517    -10.7 1.212e+04 1.916e-09
 37.73514     -8.3 1.201e+04 1.988e-09
 37.77512     -5.7 1.187e+04 2.096e-09
 37.79786     -3.0 1.178e+04 2.112e-09
 37.81785     -2.8 1.185e+04 1.616e-09
 37.85507     -0.0 1.180e+04 1.585e-09
 37.89505      2.9 1.173e+04 1.468e-09
 37.93503      5.9 1.169e+04 1.335e-09
 37.96975      8.8 1.161e+04 1.260e-09
 37.98974      9.0 1.168e+04 1.246e-09
 38.01498     12.0 1.170e+04 1.270e-09
 38.05496     14.7 1.175e+04 1.419e-09
 38.09493     17.3 1.176e+04 1.754e-09
 38.13491     19.9 1.181e+04 2.261e-09
 38.16164     22.4 1.187e+04 2.870e-09
 38.18163     22.0 1.201e+04 3.047e-09
 38.21487     24.3 1.202e+04 3.465e-09
 38.25484     26.6 1.214e+04 3.618e-09
 38.29482     28.7 1.215e+04 3.534e-09
 38.33354     30.9 1.211e+04 3.332e-09
 38.35352     30.3 1.214e+04 2.954e-09
 38.37477     32.4 1.210e+04 2.719e-09
 38.41475     34.6 1.205e+04 2.600e-09
 38.45473     36.8 1.204e+04 2.659e-09
 38.49470     38.7 1.199e+04 2.902e-09
 38.52459     40.0 1.194e+04 3.172e-09
 38.53522     40.8 1.197e+04 3.523e-09
 38.54531     40.1 1.207e+04 3.170e-09
 38.56457     41.9 1.203e+04 3.641e-09
 38.58446     42.6 1.209e+04 3.870e-09
 38.61454     44.3 1.198e+04 3.582e-09
 38.65461     46.5 1.200e+04 3.549e-09
 38.68450     48.1 1.206e+04 3.362e-09
 38.70439     48.6 1.207e+04 3.212e-09
 38.71711     49.9 1.204e+04 2.993e-09
 38.73720     50.6 1.227e+04 2.748e-09
 38.76445     51.9 1.217e+04 2.788e-09
 38.78434     53.2 1.213e+04 2.963e-09
 38.80306     54.4 1.220e+04 3.588e-09
 38.81305     54.5 1.222e+04 3.474e-09
 38.82432     55.9 1.238e+04 4.657e-09
 38.84431     57.5 1.272e+04 6.208e-09
 38.86430     57.7 1.321e+04 9.246e-09
 38.88428     57.5 1.393e+04 1.775e-08
 38.89900     57.3 1.501e+04 3.945e-08
 38.90899     57.0 1.515e+04 4.176e-08
 38.92426     56.4 1.607e+04 7.569e-08
 38.94425     55.0 1.630e+04 8.444e-08
 38.96424     53.9 1.601e+04 7.423e-08
 38.98423     53.3 1.538e+04 5.090e-08
 38.99494     52.7 1.485e+04 3.245e-08
 39.00494     52.2 1.458e+04 2.114e-08
 39.02420     51.7 1.427e+04 1.524e-08
 39.04419     51.6 1.407e+04 1.258e-08
 39.06418     51.7 1.390e+04 1.118e-08
 39.08089     51.9 1.373e+04 1.014e-08
 39.09088     52.1 1.359e+04 7.821e-09
 39.10416     52.4 1.347e+04 7.590e-09
 39.12415     52.8 1.338e+04 7.664e-09
 39.14413     53.2 1.334e+04 7.895e-09
 39.16412     53.5 1.334e+04 8.618e-09
 39.17683     53.6 1.339e+04 1.009e-08
 39.18055     54.1 1.343e+04 9.487e-09
 39.18783     54.2 1.346e+04 9.442e-09
 39.20410     54.1 1.356e+04 1.151e-08
 39.22409     54.0 1.375e+04 1.508e-08
 39.24408     53.9 1.400e+04 2.042e-08
 39.26278     53.6 1.425e+04 2.513e-08
 39.27277     54.0 1.417e+04 2.191e-08
 39.28405     53.4 1.421e+04 2.229e-08
 39.30404     53.0 1.411e+04 2.121e-08
 39.32403     52.7 1.390e+04 1.828e-08
 39.34402     52.5 1.366e+04 1.545e-08
 39.35872     52.6 1.351e+04 1.449e-08
 39.36872     53.0 1.351e+04 1.313e-08
 39.38399     53.2 1.354e+04 1.334e-08
 39.40398     53.2 1.365e+04 1.457e-08
 39.42397     53.0 1.386e+04 1.803e-08
 39.44396     52.8 1.419e+04 2.493e-08
 39.45466     52.5 1.471e+04 3.529e-08
 39.46466     52.7 1.472e+04 3.408e-08
 39.48394     51.9 1.525e+04 4.050e-08
 39.50393     50.6 1.526e+04 3.883e-08
 39.52391     49.6 1.499e+04 3.139e-08
 39.54061     49.6 1.447e+04 2.014e-08
 39.55061     49.9 1.450e+04 1.701e-08
 39.56389     50.0 1.410e+04 1.001e-08
 39.58388     50.1 1.394e+04 5.927e-09
 39.60387     50.2 1.389e+04 4.064e-09
 39.62386     50.6 1.362e+04 3.708e-09
 39.63655     51.3 1.358e+04 3.708e-09
 39.64655     51.5 1.371e+04 3.184e-09
 39.66383     52.5 1.369e+04 3.320e-09
 39.68382     53.3 1.383e+04 3.606e-09
 39.70381     53.3 1.400e+04 4.050e-09
 39.72250     52.6 1.435e+04 5.547e-09
 39.73250     52.5 1.444e+04 5.017e-09
 39.74379     50.0 1.488e+04 1.401e-08
 39.76378     47.6 1.582e+04 4.779e-08
 39.78376     44.6 1.621e+04 6.972e-08
 39.80375     42.2 1.580e+04 5.698e-08
 39.81844     41.0 1.501e+04 2.379e-08
 39.82844     41.1 1.472e+04 1.733e-08
 39.84373     38.5 1.438e+04 3.935e-09
 39.86372     35.4 1.376e+04 2.206e-09
 39.89380     35.3 1.330e+04 1.819e-09
 39.93387     36.4 1.292e+04 1.667e-09
 39.97385     38.2 1.292e+04 1.692e-09
 40.00053     39.8 1.292e+04 1.826e-09
 40.02052     40.5 1.297e+04 1.778e-09
 40.05380     41.8 1.294e+04 2.090e-09
 40.09378     42.8 1.290e+04 2.499e-09
 40.13376     43.3 1.295e+04 2.552e-09
 40.17243     43.6 1.290e+04 2.357e-09
 40.19242     44.2 1.294e+04 2.549e-09
 40.21371     44.8 1.285e+04 1.981e-09
 40.25369     45.8 1.266e+04 1.353e-09
 40.29367     47.1 1.246e+04 9.213e-10
 40.33364     48.6 1.246e+04 6.538e-10
 40.36431     50.7 1.239e+04 6.170e-10
 40.38430     51.7 1.242e+04 6.995e-10
 40.41360     54.1 1.242e+04 7.250e-10
 40.45357     56.5 1.243e+04 8.373e-10
 40.49355     58.7 1.246e+04 1.057e-09
 40.53353     60.8 1.251e+04 1.387e-09
 40.55620     62.7 1.258e+04 1.810e-09
 40.57618     63.5 1.261e+04 1.873e-09
 40.61348     65.0 1.266e+04 2.304e-09
 40.65346     66.3 1.277e+04 2.550e-09
 40.69343     67.4 1.281e+04 2.555e-09
 40.72809     68.4 1.285e+04 2.491e-09
 40.74808     69.2 1.283e+04 2.279e-09
 40.77339     70.3 1.288e+04 2.175e-09
 40.81336     71.4 1.291e+04 2.138e-09
 40.85334     72.5 1.295e+04 2.167e-09
 40.89332     73.5 1.303e+04 2.299e-09
 40.91998     74.4 1.317e+04 2.454e-09
 40.93996     74.8 1.317e+04 2.699e-09
 40.97327     75.7 1.315e+04 2.594e-09
 41.01325     76.7 1.311e+04 2.365e-09
 41.05323     77.8 1.313e+04 2.294e-09
 41.09187     78.8 1.320e+04 2.362e-09
 41.11186     79.2 1.295e+04 1.865e-09
 41.13318     80.3 1.306e+04 2.021e-09
 41.17316     81.1 1.320e+04 2.394e-09
 41.21313     81.9 1.331e+04 2.812e-09
 41.25311     82.5 1.341e+04 2.999e-09
 41.28376     83.0 1.343e+04 2.886e-09
 41.30375     84.2 1.319e+04 2.271e-09
 41.33306     85.0 1.317e+04 2.157e-09
 41.37304     86.3 1.314e+04 2.096e-09
 41.41302     87.3 1.307e+04 2.247e-09
 41.44290     87.8 1.290e+04 2.523e-09
 41.46279     88.4 1.281e+04 3.081e-09
 41.47545     89.0 1.282e+04 4.073e-09
 41.48544     89.3 1.273e+04 4.317e-09
 41.50277     89.5 1.276e+04 5.702e-09
 41.52276     89.5 1.282e+04 7.541e-09
 41.54275     89.5 1.291e+04 9.570e-09
 41.56139     89.3 1.310e+04 1.158e-08
 41.57139     89.6 1.292e+04 1.095e-08
 41.58273     89.3 1.290e+04 1.208e-08
 41.61281     88.9 1.313e+04 1.417e-08
 41.64754     88.3 1.305e+04 1.413e-08
 41.66753     88.9 1.262e+04 1.085e-08
 41.69286     89.1 1.242e+04 9.489e-09
 41.73283     89.5 1.221e+04 8.051e-09
 41.77281     90.3 1.200e+04 6.663e-09
 41.81279     91.6 1.181e+04 5.396e-09
 41.83942     93.1 1.166e+04 4.448e-09
 41.85941     94.4 1.164e+04 4.358e-09
 41.89274     96.1 1.153e+04 4.140e-09
 41.93272     97.9 1.142e+04 4.032e-09
 41.97270     99.6 1.133e+04 3.915e-09
 42.01132    101.1 1.121e+04 3.675e-09
 42.03131    102.2 1.125e+04 3.739e-09
 42.05265    103.6 1.105e+04 3.178e-09
 42.09263    105.1 1.082e+04 2.481e-09
 42.13260    106.6 1.059e+04 1.856e-09
 42.17258    108.3 1.038e+04 1.547e-09
 42.20320    110.4 1.033e+04 1.535e-09
 42.22319    111.3 1.034e+04 1.498e-09
 42.25253    113.6 1.034e+04 1.536e-09
 42.29251    116.0 1.038e+04 1.709e-09
 42.33249    118.3 1.054e+04 2.022e-09
 42.37246    120.6 1.075e+04 2.441e-09
 42.39509    122.8 1.097e+04 2.851e-09
 42.41508    123.2 1.118e+04 3.207e-09
 42.45242    125.1 1.119e+04 3.304e-09
 42.49240    127.1 1.122e+04 3.178e-09
 42.53237    129.3 1.123e+04 2.831e-09
 42.56698    131.7 1.129e+04 2.538e-09
 42.58697    132.2 1.136e+04 2.492e-09
 42.61233    134.7 1.146e+04 2.496e-09
 42.65230    136.5 1.158e+04 2.616e-09
 42.67282    137.9 1.166e+04 3.212e-09
 42.68272    138.1 1.172e+04 3.642e-09
 42.70208    139.1 1.187e+04 4.601e-09
 42.72207    140.1 1.205e+04 5.851e-09
 42.74206    140.8 1.223e+04 7.204e-09
 42.75867    141.4 1.241e+04 8.370e-09
 42.76867    141.4 1.266e+04 9.627e-09
 42.78203    141.7 1.290e+04 9.844e-09
 42.80202    141.7 1.295e+04 9.766e-09
 42.82201    141.8 1.302e+04 9.401e-09
 42.84200    141.8 1.307e+04 8.747e-09
 42.85461    142.0 1.310e+04 8.092e-09
 42.86461    141.7 1.320e+04 8.823e-09
 42.88197    141.9 1.324e+04 7.892e-09
 42.90196    142.2 1.329e+04 7.118e-09
 42.92195    142.5 1.334e+04 6.850e-09
 42.94056    142.8 1.337e+04 6.870e-09
 42.95056    142.6 1.344e+04 7.846e-09
 42.96193    142.8 1.358e+04 8.816e-09
 42.98192    143.1 1.384e+04 1.120e-08
 43.00191    143.4 1.417e+04 1.534e-08
 43.02189    143.6 1.461e+04 2.199e-08
 43.03650    143.8 1.512e+04 3.137e-08
 43.04650    143.1 1.545e+04 3.824e-08
 43.06187    143.0 1.588e+04 4.895e-08
 43.08186    143.0 1.620e+04 5.872e-08
 43.10185    143.1 1.647e+04 6.734e-08
 43.12184    143.1 1.673e+04 7.517e-08
 43.13245    142.9 1.704e+04 8.315e-08
 43.13441    142.2 1.705e+04 8.055e-08
 43.14378    140.1 1.710e+04 7.489e-08
 43.16181    138.6 1.747e+04 8.614e-08
 43.18180    136.4 1.767e+04 9.505e-08
 43.20179    133.7 1.759e+04 9.365e-08
 43.21840    131.4 1.711e+04 8.133e-08
 43.22839    130.4 1.676e+04 7.483e-08
 43.24177    129.6 1.580e+04 4.924e-08
 43.26176    129.1 1.488e+04 2.953e-08
 43.28174    128.8 1.423e+04 1.833e-08
 43.30173    128.6 1.393e+04 1.245e-08
 43.31434    128.6 1.375e+04 9.261e-09
 43.32433    128.3 1.373e+04 8.648e-09
 43.34171    128.8 1.357e+04 6.853e-09
 43.36170    129.4 1.344e+04 5.264e-09
 43.38169    129.9 1.333e+04 3.999e-09
 43.40029    130.4 1.321e+04 3.164e-09
 43.41028    130.5 1.319e+04 3.564e-09
 43.42166    131.0 1.304e+04 3.104e-09
 43.44165    131.4 1.287e+04 3.007e-09
 43.46164    132.0 1.279e+04 3.070e-09
 43.48163    132.5 1.271e+04 3.322e-09
 43.49623    132.9 1.266e+04 3.727e-09
 43.50622    133.2 1.268e+04 4.017e-09
 43.52161    133.6 1.265e+04 4.521e-09
 43.54159    133.9 1.264e+04 5.192e-09
 43.56158    134.1 1.264e+04 6.009e-09
 43.58157    134.1 1.267e+04 6.984e-09
 43.59217    134.1 1.271e+04 8.098e-09
 43.60216    134.2 1.278e+04 9.250e-09
 43.62155    134.0 1.279e+04 1.035e-08
 43.64154    133.9 1.275e+04 1.119e-08
 43.66152    133.8 1.269e+04 1.180e-08
 43.67812    133.7 1.263e+04 1.224e-08
 43.68811    133.7 1.265e+04 1.285e-08
 43.70150    133.7 1.257e+04 1.284e-08
 43.72149    133.6 1.250e+04 1.293e-08
 43.74148    133.5 1.244e+04 1.309e-08
 43.76147    133.4 1.239e+04 1.312e-08
 43.77406    133.4 1.229e+04 1.306e-08
 43.78405    133.5 1.220e+04 1.240e-08
 43.80144    133.6 1.212e+04 1.219e-08
 43.82143    133.7 1.205e+04 1.200e-08
 43.85011    134.8 1.187e+04 1.122e-08
 43.87020    135.9 1.163e+04 9.781e-09
 43.89159    136.9 1.130e+04 7.699e-09
 43.93156    138.3 1.095e+04 5.433e-09
 43.97154    140.0 1.061e+04 3.650e-09
 44.01152    142.0 1.024e+04 2.661e-09
 44.04209    144.4 9.824e+03 2.455e-09
 44.06208    145.5 1.000e+04 2.716e-09
 44.09147    148.0 9.819e+03 2.682e-09
 44.13145    150.5 9.761e+03 2.751e-09
 44.17143    152.8 9.641e+03 2.970e-09
 44.21140    155.1 9.551e+03 3.383e-09
 44.23398    157.2 9.474e+03 3.937e-09
 44.25397    157.5 9.425e+03 3.337e-09
 44.29136    159.4 9.344e+03 3.698e-09
 44.33133    160.9 9.326e+03 4.147e-09
 44.37131    162.0 9.395e+03 4.718e-09
 44.40120    162.5 9.437e+03 5.139e-09
 44.41567    162.8 9.451e+03 5.462e-09
 44.42567    163.1 9.575e+03 5.787e-09
 44.44107    163.0 9.598e+03 6.205e-09
 44.46106    163.0 9.609e+03 6.525e-09
 44.48105    162.8 9.617e+03 6.772e-09
 44.50104    162.5 9.633e+03 6.958e-09
 44.51162    162.1 9.635e+03 7.047e-09
 44.52161    162.3 9.820e+03 7.689e-09
 44.54102    161.7 9.808e+03 7.686e-09
 44.56101    160.9 9.746e+03 7.568e-09
 44.58099    160.2 9.627e+03 7.262e-09
 44.59756    159.4 9.477e+03 6.870e-09
 44.60756    159.6 9.574e+03 7.220e-09
 44.62097    158.8 9.413e+03 6.944e-09
 44.64096    158.0 9.363e+03 6.937e-09
 44.66095    157.1 9.366e+03 7.000e-09
 44.68094    156.1 9.412e+03 7.356e-09
 44.69351    155.0 9.621e+03 8.380e-09
 44.70350    154.3 9.995e+03 1.013e-08
 44.72091    152.6 1.046e+04 1.293e-08
 44.74090    151.0 1.088e+04 1.607e-08
 44.76089    149.5 1.115e+04 1.839e-08
 44.77945    148.1 1.118e+04 1.867e-08
 44.78945    146.2 1.162e+04 2.135e-08
 44.80087    145.1 1.153e+04 2.036e-08
 44.82086    144.5 1.134e+04 1.865e-08
 44.84084    144.1 1.110e+04 1.682e-08
 44.86083    143.8 1.089e+04 1.526e-08
 44.87540    143.6 1.073e+04 1.408e-08
 44.88539    141.9 1.092e+04 1.461e-08
 44.90081    142.1 1.093e+04 1.469e-08
 44.92080    142.3 1.100e+04 1.509e-08
 44.94079    142.5 1.117e+04 1.622e-08
 44.96077    142.5 1.141e+04 1.800e-08
 44.97134    142.6 1.167e+04 2.003e-08
 44.98133    142.5 1.208e+04 2.441e-08
 45.00075    142.7 1.235e+04 2.619e-08
 45.02074    142.9 1.237e+04 2.600e-08
 45.04073    143.1 1.234e+04 2.461e-08
 45.05729    143.3 1.215e+04 2.159e-08
 45.06728    143.5 1.254e+04 2.443e-08
 45.08071    143.7 1.227e+04 1.968e-08
 45.10069    143.8 1.194e+04 1.556e-08
 45.11177    143.8 1.169e+04 1.251e-08
 45.12176    144.4 1.308e+04 2.473e-08
 45.14067    144.1 1.297e+04 2.118e-08
 45.15323    143.8 1.292e+04 1.783e-08
 45.16322    143.6 1.395e+04 3.397e-08
 45.18065    143.1 1.404e+04 3.311e-08
 45.20064    142.5 1.411e+04 3.115e-08
 45.22062    141.7 1.416e+04 2.902e-08
 45.23918    140.8 1.416e+04 2.783e-08
 45.24917    140.9 1.558e+04 6.805e-08
 45.26060    140.0 1.556e+04 6.517e-08
 45.28059    139.2 1.542e+04 6.029e-08
 45.30058    138.3 1.520e+04 5.494e-08
 45.32057    137.5 1.491e+04 4.843e-08
 45.33512    136.6 1.471e+04 4.296e-08
 45.34511    136.4 1.487e+04 4.288e-08
 45.36054    135.3 1.460e+04 3.460e-08
 45.38053    134.2 1.466e+04 3.319e-08
 45.40052    133.0 1.472e+04 3.312e-08
 45.42051    131.9 1.487e+04 3.267e-08
 45.43106    130.9 1.488e+04 3.076e-08
 45.44106    131.3 1.466e+04 2.557e-08
 45.46049    130.6 1.455e+04 2.252e-08
 45.48047    130.0 1.441e+04 1.935e-08
 45.50046    129.5 1.417e+04 1.585e-08
 45.51701    129.1 1.392e+04 1.300e-08
 45.52700    129.9 1.389e+04 1.182e-08
 45.54044    129.5 1.375e+04 1.033e-08
 45.57052    129.7 1.352e+04 9.323e-09
 45.61059    130.6 1.309e+04 9.307e-09
 45.64048    131.3 1.295e+04 9.238e-09
 45.66037    131.9 1.294e+04 9.258e-09
 45.68036    132.2 1.295e+04 9.481e-09
 45.69890    132.5 1.299e+04 1.024e-08
 45.70889    133.3 1.296e+04 8.691e-09
 45.72034    133.6 1.301e+04 9.466e-09
 45.74032    133.9 1.307e+04 1.070e-08
 45.76031    134.3 1.313e+04 1.258e-08
 45.78030    134.8 1.326e+04 1.526e-08
 45.79484    135.3 1.345e+04 1.907e-08
 45.80484    135.8 1.347e+04 1.683e-08
 45.82028    136.3 1.377e+04 2.291e-08
 45.84027    136.9 1.416e+04 3.105e-08
 45.86026    137.3 1.457e+04 3.982e-08
 45.88024    137.5 1.488e+04 4.577e-08
 45.89078    137.5 1.492e+04 4.595e-08
 45.90078    138.1 1.508e+04 5.030e-08
 45.92022    138.1 1.503e+04 4.847e-08
 45.94021    138.3 1.474e+04 4.197e-08
 45.96020    138.7 1.426e+04 3.361e-08
 45.97673    139.2 1.365e+04 2.434e-08
 45.98673    139.8 1.400e+04 2.855e-08
 46.00017    140.4 1.354e+04 2.215e-08
 46.02016    141.1 1.310e+04 1.675e-08
 46.04015    141.9 1.271e+04 1.257e-08
 46.06014    142.7 1.244e+04 9.731e-09
 46.07267    143.6 1.223e+04 7.922e-09
 46.08267    144.4 1.253e+04 1.067e-08
 46.10012    145.3 1.235e+04 8.930e-09
 46.12010    146.2 1.222e+04 8.088e-09
 46.14009    147.1 1.218e+04 8.004e-09
 46.15862    148.0 1.218e+04 8.035e-09
 46.16862    148.7 1.239e+04 9.102e-09
 46.18007    149.4 1.241e+04 9.230e-09
 46.20006    149.9 1.248e+04 9.788e-09
 46.22005    150.2 1.256e+04 1.083e-08
 46.24004    150.4 1.266e+04 1.239e-08
 46.25456    150.5 1.277e+04 1.464e-08
 46.26456    150.9 1.298e+04 1.593e-08
 46.28001    150.9 1.313e+04 1.855e-08
 46.30000    150.9 1.336e+04 2.211e-08
 46.31999    150.7 1.365e+04 2.679e-08
 46.33998    150.3 1.392e+04 3.319e-08
 46.35051    149.7 1.415e+04 3.899e-08
 46.36050    149.5 1.411e+04 3.430e-08
 46.37995    148.5 1.440e+04 4.101e-08
 46.39994    147.2 1.456e+04 4.336e-08
 46.41993    145.6 1.455e+04 4.290e-08
 46.43646    144.0 1.443e+04 4.001e-08
 46.44645    143.7 1.459e+04 4.288e-08
 46.45991    142.2 1.435e+04 3.743e-08
 46.47990    140.9 1.399e+04 3.034e-08
 46.49989    139.9 1.365e+04 2.317e-08
 46.51987    139.1 1.335e+04 1.687e-08
 46.53240    138.5 1.315e+04 1.204e-08
 46.54239    138.0 1.310e+04 8.756e-09
 46.55985    137.2 1.291e+04 6.753e-09
 46.57984    136.9 1.272e+04 6.531e-09
 46.59983    136.8 1.271e+04 6.557e-09
 46.61835    136.8 1.272e+04 6.819e-09
 46.62834    136.5 1.284e+04 7.251e-09
 46.63980    136.4 1.296e+04 8.861e-09
 46.65979    136.4 1.314e+04 1.170e-08
 46.67978    136.4 1.341e+04 1.524e-08
 46.69977    136.3 1.379e+04 1.730e-08
 46.71429    135.9 1.389e+04 1.719e-08
 46.72428    135.4 1.395e+04 1.537e-08
 46.73975    134.6 1.393e+04 1.358e-08
 46.75974    134.2 1.369e+04 1.035e-08
 46.77972    133.9 1.344e+04 8.134e-09
 46.80033    134.2 1.306e+04 5.686e-09
 46.82042    134.7 1.298e+04 5.872e-09
 46.84988    135.7 1.266e+04 3.934e-09
 46.88986    137.2 1.254e+04 2.718e-09
 46.92983    139.0 1.255e+04 2.178e-09
 46.96981    141.1 1.262e+04 2.024e-09
 46.99232    143.3 1.260e+04 1.969e-09
 47.01230    143.5 1.263e+04 2.555e-09
 47.04976    145.8 1.254e+04 2.498e-09
 47.07994    148.1 1.240e+04 2.468e-09
 47.09983    148.4 1.249e+04 3.087e-09
 47.11953    149.6 1.237e+04 3.038e-09
 47.13952    150.3 1.231e+04 3.002e-09
 47.15950    151.5 1.216e+04 2.924e-09
 47.17401    152.1 1.207e+04 2.820e-09
 47.18400    152.5 1.216e+04 3.369e-09
 47.19948    153.5 1.201e+04 3.134e-09
 47.21947    154.1 1.195e+04 2.880e-09
 47.24955    155.5 1.180e+04 2.922e-09
 47.28963    157.0 1.159e+04 2.346e-09
 47.32960    158.6 1.137e+04 1.838e-09
 47.35610    160.2 1.097e+04 1.597e-09
 47.37608    160.3 1.108e+04 1.994e-09
 47.40956    161.9 1.094e+04 2.020e-09
 47.44953    163.7 1.081e+04 2.170e-09
 47.48951    165.3 1.069e+04 2.614e-09
 47.52799    166.9 1.066e+04 3.174e-09
 47.54788    166.5 1.064e+04 3.766e-09
 47.55927    167.3 1.056e+04 3.810e-09
 47.57926    168.1 1.050e+04 3.824e-09
 47.59925    168.8 1.045e+04 3.803e-09
 47.61924    169.5 1.037e+04 3.721e-09
 47.64932    170.5 1.019e+04 3.327e-09
 47.68939    172.2 9.987e+03 3.108e-09
 47.71988    173.7 9.798e+03 3.085e-09
 47.73987    172.9 9.644e+03 2.863e-09
 47.76935    174.6 9.596e+03 2.950e-09
 47.80932    175.9 9.558e+03 3.101e-09
 47.84930    177.0 9.508e+03 3.273e-09
 47.88928    178.0 9.464e+03 3.287e-09
 47.91176    179.3 9.319e+03 3.210e-09
 47.93175    179.4 9.201e+03 3.005e-09
 47.96923    180.9 8.924e+03 2.614e-09
 48.00921    182.6 8.651e+03 2.207e-09
 48.04919    184.4 8.390e+03 1.923e-09
 48.08366    186.3 8.168e+03 1.828e-09
 48.10365    186.4 8.059e+03 1.597e-09
 48.12914    188.5 8.050e+03 1.603e-09
 48.16912    190.7 8.020e+03 1.644e-09
 48.20909    192.7 7.988e+03 1.744e-09
 48.24907    194.7 7.972e+03 1.878e-09
 48.27554    196.6 7.977e+03 2.019e-09
 48.29553    196.7 8.023e+03 1.890e-09
 48.32902    198.5 8.051e+03 2.039e-09
 48.36900    200.1 8.091e+03 2.228e-09
 48.40898    201.7 8.181e+03 2.525e-09
 48.44744    203.2 8.341e+03 2.998e-09
 48.46743    203.2 8.399e+03 2.858e-09
 48.48893    204.6 8.562e+03 3.219e-09
 48.52891    205.8 8.639e+03 3.330e-09
 48.56889    206.9 8.631e+03 3.304e-09
 48.60886    208.0 8.568e+03 3.168e-09
 48.63932    209.1 8.437e+03 2.932e-09
 48.65931    209.3 8.255e+03 2.228e-09
 48.68882    210.4 8.245e+03 2.223e-09
 48.72879    211.5 8.267e+03 2.315e-09
 48.76877    212.4 8.389e+03 2.577e-09
 48.80875    213.0 8.524e+03 2.923e-09
 48.83121    213.3 8.598e+03 3.275e-09
 48.85120    214.1 8.791e+03 3.678e-09
 48.88870    214.2 8.917e+03 3.992e-09
 48.92868    214.3 8.934e+03 3.996e-09
 48.96866    214.2 8.916e+03 3.913e-09
 49.00310    214.3 8.823e+03 3.639e-09
 49.02309    215.2 8.977e+03 3.931e-09
 49.04861    215.4 8.823e+03 3.516e-09
 49.08859    215.8 8.650e+03 3.101e-09
 49.12856    216.4 8.518e+03 2.814e-09
 49.16854    217.2 8.520e+03 2.758e-09
 49.19499    218.1 8.545e+03 2.783e-09
 49.21498    219.1 8.689e+03 3.067e-09
 49.24849    219.3 8.810e+03 3.303e-09
 49.28847    219.2 9.102e+03 4.045e-09
 49.32845    218.6 9.653e+03 5.688e-09
 49.36688    217.0 1.046e+04 8.514e-09
 49.38687    218.1 1.036e+04 7.597e-09
 49.40840    215.0 1.106e+04 8.567e-09
 49.44838    210.8 1.122e+04 8.430e-09
 49.48836    206.5 1.129e+04 7.266e-09
 49.52833    203.1 1.111e+04 4.869e-09
 49.55877    200.7 1.086e+04 2.708e-09
 49.57876    202.2 1.069e+04 2.083e-09
 49.60829    200.7 1.064e+04 1.314e-09
 49.64826    200.3 1.082e+04 9.795e-10
 49.68824    200.5 1.097e+04 9.199e-10
 49.72822    200.8 1.098e+04 9.210e-10
 49.75065    201.2 1.105e+04 9.663e-10
 49.77064    202.3 1.112e+04 8.311e-10
 49.80817    202.8 1.126e+04 9.026e-10
 49.84815    203.3 1.150e+04 1.108e-09
 49.88812    203.6 1.185e+04 1.488e-09
 49.92255    203.5 1.227e+04 2.039e-09
 49.94254    204.9 1.209e+04 1.489e-09
 49.96808    204.7 1.247e+04 2.086e-09
 50.00806    204.6 1.276e+04 2.942e-09
 50.04803    204.3 1.291e+04 4.066e-09
 50.08801    203.8 1.293e+04 5.123e-09
 50.11443    203.4 1.289e+04 5.537e-09
 50.12433    205.0 1.286e+04 4.942e-09
 50.13778    204.6 1.289e+04 5.312e-09
 50.16787    204.1 1.280e+04 5.589e-09
 50.20794    204.5 1.271e+04 5.944e-09
 50.24792    204.8 1.270e+04 6.347e-09
 50.28633    204.7 1.269e+04 6.431e-09
 50.30632    205.9 1.237e+04 5.573e-09
 50.32787    206.2 1.234e+04 5.593e-09
 50.36785    206.5 1.222e+04 5.412e-09
 50.40782    206.8 1.197e+04 4.735e-09
 50.44780    207.0 1.177e+04 3.676e-09
 50.47821    207.2 1.166e+04 2.618e-09
 50.49820    208.9 1.152e+04 3.344e-09
 50.52776    209.4 1.143e+04 2.655e-09
 50.56773    209.9 1.138e+04 2.042e-09
 50.60771    210.3 1.132e+04 1.581e-09
 50.64769    211.0 1.102e+04 1.391e-09
 50.67010    212.0 1.089e+04 1.395e-09
 50.69009    213.6 1.095e+04 1.472e-09
 50.72764    214.7 1.080e+04 1.462e-09
 50.76762    215.8 1.077e+04 1.476e-09
 50.80759    216.8 1.074e+04 1.499e-09
 50.84199    217.6 1.073e+04 1.495e-09
 50.86198    219.0 1.067e+04 1.546e-09
 50.88755    219.8 1.061e+04 1.497e-09
 50.92752    220.6 1.051e+04 1.398e-09
 50.96750    221.4 1.038e+04 1.316e-09
 51.00748    222.3 1.031e+04 1.308e-09
 51.03388    223.2 1.028e+04 1.327e-09
 51.04231    223.9 1.022e+04 1.533e-09
 51.05589    224.0 1.011e+04 1.636e-09
 51.08743    224.9 1.008e+04 1.643e-09
 51.12741    225.9 1.004e+04 1.701e-09
 51.16739    226.9 1.002e+04 1.850e-09
 51.20578    227.9 1.008e+04 2.088e-09
 51.22576    228.6 1.011e+04 2.300e-09
 51.24734    229.2 1.028e+04 2.691e-09
 51.28732    229.5 1.046e+04 2.998e-09
 51.32729    229.6 1.050e+04 2.997e-09
 51.36727    230.0 1.044e+04 2.788e-09
 51.39766    230.9 1.024e+04 2.381e-09
 51.41755    231.1 1.038e+04 2.540e-09
 51.44713    231.8 1.031e+04 2.366e-09
 51.48720    232.3 1.020e+04 2.289e-09
 51.52718    232.6 1.021e+04 2.382e-09
 51.55706    232.9 1.027e+04 2.680e-09
 51.57695    233.3 1.040e+04 3.244e-09
 51.58935    233.6 1.056e+04 4.041e-09
 51.59934    233.8 1.057e+04 3.972e-09
 51.61693    233.9 1.069e+04 4.680e-09
 51.63692    234.0 1.080e+04 5.404e-09
 51.65691    234.1 1.090e+04 6.040e-09
 51.67530    234.3 1.099e+04 6.535e-09
 51.68529    234.2 1.100e+04 6.380e-09
 51.69688    234.3 1.111e+04 6.958e-09
 51.71687    234.4 1.121e+04 7.560e-09
 51.73686    234.5 1.134e+04 8.170e-09
 51.75685    234.4 1.152e+04 8.595e-09
 51.77124    234.2 1.175e+04 8.543e-09
 51.78123    233.9 1.164e+04 8.206e-09
 51.79683    233.1 1.170e+04 7.624e-09
 51.81682    232.4 1.170e+04 7.041e-09
 51.84690    232.3 1.153e+04 5.701e-09
 51.88697    231.5 1.119e+04 3.711e-09
 51.92695    230.7 1.074e+04 2.228e-09
 51.95332    229.8 1.044e+04 1.725e-09
 51.97331    229.7 1.023e+04 1.408e-09
 52.00690    228.9 1.021e+04 1.414e-09
 52.04688    228.2 1.023e+04 1.502e-09
 52.08685    227.2 1.035e+04 1.815e-09
 52.12522    226.3 1.054e+04 2.262e-09
 52.14521    225.1 1.055e+04 2.361e-09
 52.15672    224.7 1.067e+04 2.757e-09
 52.17661    224.4 1.083e+04 3.336e-09
 52.19660    224.0 1.097e+04 3.999e-09
 52.21658    223.5 1.106e+04 4.406e-09
 52.23096    222.9 1.112e+04 4.573e-09
 52.24096    222.1 1.123e+04 5.173e-09
 52.25656    220.8 1.140e+04 5.696e-09
 52.27655    218.9 1.184e+04 7.721e-09
 52.29654    216.8 1.267e+04 1.360e-08
 52.31653    215.0 1.362e+04 2.460e-08
 52.32690    213.2 1.444e+04 3.464e-08
 52.33690    211.7 1.441e+04 3.180e-08
 52.35650    209.2 1.444e+04 3.015e-08
 52.37649    206.5 1.431e+04 2.311e-08
 52.39648    203.7 1.382e+04 1.601e-08
 52.41285    201.0 1.332e+04 1.425e-08
 52.42285    199.2 1.294e+04 1.047e-08
 52.43646    197.3 1.296e+04 1.105e-08
 52.45645    195.7 1.321e+04 1.238e-08
 52.47643    193.9 1.344e+04 1.277e-08
 52.49642    191.9 1.344e+04 1.221e-08
 52.50879    189.9 1.333e+04 1.069e-08
 52.52888    185.7 1.299e+04 6.942e-09
 52.56658    182.1 1.247e+04 4.752e-09
 52.60655    179.8 1.171e+04 3.544e-09
 52.64653    178.7 1.114e+04 3.152e-09
 52.68089    177.9 1.090e+04 3.027e-09
 52.70087    176.0 1.105e+04 2.794e-09
 52.71639    175.5 1.092e+04 2.720e-09
 52.73628    175.3 1.078e+04 2.703e-09
 52.75627    175.0 1.062e+04 2.694e-09
 52.77626    174.6 1.058e+04 2.708e-09
 52.78663    174.2 1.055e+04 2.769e-09
 52.79662    173.3 1.079e+04 3.203e-09
 52.81624    172.7 1.088e+04 3.624e-09
 52.83623    171.9 1.104e+04 4.297e-09
 52.85622    171.0 1.131e+04 5.363e-09
 52.87258    170.1 1.166e+04 6.931e-09
 52.88257    167.6 1.219e+04 1.063e-08
 52.89619    166.7 1.243e+04 1.204e-08
 52.91618    165.7 1.244e+04 1.196e-08
 52.93617    164.9 1.235e+04 1.111e-08
 52.95616    164.1 1.215e+04 9.137e-09
 52.96852    163.2 1.192e+04 6.902e-09
 52.97851    161.1 1.179e+04 5.372e-09
 52.99613    160.1 1.157e+04 4.321e-09
 53.01368    159.6 1.139e+04 3.904e-09
 53.02367    158.6 1.118e+04 3.583e-09
 53.03611    158.4 1.123e+04 3.591e-09
 53.05447    158.4 1.129e+04 3.570e-09
 53.06456    157.5 1.119e+04 2.897e-09
 53.08628    156.9 1.125e+04 2.838e-09
 53.11616    156.6 1.120e+04 2.879e-09
 53.13605    156.7 1.116e+04 2.932e-09
 53.15041    156.5 1.118e+04 3.013e-09
 53.16040    154.8 1.117e+04 2.843e-09
 53.17603    154.4 1.129e+04 3.107e-09
 53.19602    153.7 1.156e+04 3.537e-09
 53.21601    152.7 1.186e+04 4.070e-09
 53.23600    151.5 1.214e+04 4.774e-09
 53.24635    150.7 1.226e+04 5.285e-09
 53.25644    149.7 1.218e+04 4.984e-09
 53.28616    148.0 1.223e+04 6.175e-09
 53.32614    145.6 1.209e+04 6.984e-09
 53.36612    142.8 1.197e+04 6.996e-09
 53.40609    140.2 1.151e+04 6.575e-09
 53.42844    138.2 1.091e+04 5.231e-09
 53.44842    136.0 1.065e+04 4.289e-09
 53.48605    135.6 1.026e+04 3.184e-09
 53.52602    135.4 9.989e+03 2.540e-09
 53.56600    135.5 9.670e+03 2.382e-09
 53.60033    135.9 9.526e+03 2.405e-09
 53.62032    135.2 9.552e+03 2.413e-09
 53.64595    135.8 9.469e+03 2.450e-09
 53.68593    136.4 9.388e+03 2.428e-09
 53.72591    136.9 9.223e+03 2.302e-09
 53.76589    137.3 9.032e+03 1.966e-09
 53.79222    137.6 8.789e+03 1.559e-09
 53.81220    137.4 8.926e+03 1.854e-09
 53.84584    138.0 8.748e+03 1.705e-09
 53.88582    138.8 8.748e+03 1.713e-09
 53.92579    139.8 8.797e+03 1.870e-09
 53.96411    140.5 9.021e+03 2.457e-09
 53.98410    140.5 9.387e+03 3.531e-09
 54.00575    140.6 9.785e+03 4.771e-09
 54.04572    140.3 9.991e+03 5.278e-09
 54.08570    139.7 9.969e+03 5.153e-09
 54.12568    139.2 9.733e+03 4.341e-09
 54.15600    138.9 9.318e+03 3.010e-09
 54.17599    138.6 9.343e+03 2.776e-09
 54.20563    138.1 8.787e+03 1.716e-09
 54.24561    137.2 8.638e+03 1.310e-09
 54.28559    136.4 8.654e+03 1.337e-09
 54.32556    135.6 8.729e+03 1.480e-09
 54.34788    134.6 8.903e+03 1.817e-09
 54.36787    134.5 9.250e+03 2.727e-09
 54.40552    133.2 9.437e+03 2.807e-09
 54.44549    131.7 9.443e+03 2.687e-09
 54.48547    130.0 9.440e+03 2.293e-09
 54.51978    128.1 9.383e+03 1.845e-09
 54.53977    128.1 9.429e+03 1.688e-09
 54.56542    126.3 9.270e+03 1.568e-09
 54.60540    124.6 9.291e+03 1.577e-09
 54.64538    122.9 9.471e+03 1.680e-09
 54.68535    121.6 9.695e+03 1.906e-09
 54.71156    120.9 9.933e+03 2.268e-09
 54.72146    121.0 1.008e+04 2.465e-09
 54.73513    118.9 1.068e+04 4.034e-09
 54.75512    115.1 1.225e+04 1.060e-08
 54.77511    110.6 1.499e+04 3.390e-08
 54.79510    105.6 1.722e+04 9.687e-08
 54.80741    100.3 1.808e+04 1.281e-07
 54.81236    101.2 1.863e+04 1.835e-07
 54.81998     98.2 1.862e+04 1.792e-07
 54.83502     94.3 1.821e+04 1.215e-07
 54.85506     89.4 1.736e+04 4.197e-08
 54.87505     81.9 1.490e+04 1.074e-08
 54.89336     74.7 1.299e+04 8.919e-09
 54.90335     74.0 1.274e+04 8.488e-09
 54.91503     70.2 1.276e+04 9.495e-09
 54.93501     68.4 1.296e+04 1.258e-08
 54.96509     65.2 1.342e+04 1.480e-08
 54.99185     60.9 1.321e+04 1.242e-08
 55.01184     62.9 1.314e+04 1.168e-08
 55.04515     59.7 1.252e+04 6.774e-09
 55.07544     57.0 1.160e+04 2.835e-09
 55.09543     58.5 1.184e+04 3.333e-09
 55.12510     56.4 1.122e+04 1.749e-09
 55.16508     55.2 1.111e+04 1.689e-09
 55.20505     54.5 1.117e+04 1.820e-09
 55.24503     53.6 1.144e+04 2.397e-09
 55.26733     52.7 1.158e+04 2.994e-09
 55.28732     54.0 1.163e+04 2.375e-09
 55.32498     53.1 1.151e+04 2.738e-09
 55.36496     52.3 1.143e+04 2.592e-09
 55.40494     51.8 1.121e+04 2.308e-09
 55.43922     51.4 1.107e+04 2.300e-09
 55.45921     52.5 1.123e+04 2.389e-09
 55.48489     52.1 1.117e+04 2.638e-09
 55.52487     52.2 1.116e+04 3.270e-09
 55.56485     52.3 1.120e+04 3.712e-09
 55.60482     52.6 1.114e+04 3.707e-09
 55.63111     53.0 1.107e+04 3.435e-09
 55.65110     53.7 1.129e+04 4.150e-09
 55.68478     54.2 1.119e+04 3.873e-09
 55.72475     54.8 1.106e+04 3.442e-09
 55.76473     55.5 1.084e+04 3.187e-09
 55.80300     56.3 1.079e+04 3.205e-09
 55.82299     56.8 1.074e+04 3.335e-09
 55.84468     57.6 1.075e+04 3.561e-09
 55.88466     58.3 1.091e+04 4.734e-09
 55.92464     58.9 1.133e+04 7.161e-09
 55.96462     59.2 1.173e+04 9.977e-09
 55.99489     59.2 1.171e+04 1.023e-08
 56.01488     59.4 1.188e+04 1.231e-08
 56.04457     59.4 1.177e+04 1.171e-08
 56.08455     59.4 1.143e+04 9.506e-09
 56.12452     59.6 1.096e+04 6.552e-09
 56.16450     60.0 1.046e+04 4.271e-09
 56.18668     60.3 1.006e+04 3.163e-09
 56.20666     60.7 1.011e+04 3.592e-09
 56.24445     61.5 9.956e+03 3.067e-09
 56.28443     61.8 9.959e+03 2.997e-09
 56.32441     62.3 9.941e+03 2.910e-09
 56.35867     63.0 9.929e+03 2.753e-09
 56.37866     63.1 9.923e+03 3.076e-09
 56.40436     63.8 9.882e+03 2.899e-09
 56.44434     64.4 9.833e+03 2.626e-09
 56.48432     65.0 9.853e+03 2.615e-09
 56.51420     65.1 9.895e+03 2.809e-09
 56.53409     65.2 9.930e+03 2.954e-09
 56.55046     65.8 1.021e+04 3.833e-09
 56.57054     65.8 1.041e+04 5.300e-09
 56.60425     65.5 1.074e+04 6.335e-09
 56.64422     64.8 1.079e+04 6.345e-09
 56.68420     64.3 1.070e+04 5.671e-09
 56.71408     63.9 1.055e+04 4.745e-09
 56.73225     63.8 1.051e+04 4.419e-09
 56.74224     63.4 1.038e+04 4.375e-09
 56.76406     63.3 1.027e+04 3.414e-09
 56.80413     63.2 1.021e+04 2.836e-09
 56.84411     63.3 1.015e+04 2.444e-09
 56.88408     63.6 1.012e+04 2.160e-09
 56.91433     63.8 1.011e+04 1.928e-09
 56.93432     63.0 9.894e+03 1.468e-09
 56.96404     63.3 9.909e+03 1.454e-09
 57.00402     63.4 9.981e+03 1.516e-09
 57.04399     63.1 1.022e+04 1.793e-09
 57.08397     62.3 1.055e+04 2.408e-09
 57.10612     60.8 1.086e+04 3.700e-09
 57.11602     60.0 1.084e+04 4.044e-09
 57.13374     59.5 1.116e+04 5.921e-09
 57.15373     58.8 1.166e+04 7.208e-09
 57.17372     57.7 1.183e+04 7.185e-09
 57.19197     56.2 1.194e+04 6.632e-09
 57.20197     55.3 1.193e+04 6.120e-09
 57.21370     53.2 1.200e+04 5.356e-09
 57.23369     51.1 1.194e+04 5.155e-09
 57.25368     49.2 1.191e+04 5.284e-09
 57.27366     47.5 1.191e+04 5.765e-09
 57.28791     46.1 1.196e+04 6.413e-09
 57.29791     45.7 1.199e+04 6.788e-09
 57.31364     44.4 1.209e+04 7.643e-09
 57.33363     43.0 1.204e+04 7.798e-09
 57.35362     41.7 1.190e+04 7.312e-09
 57.37361     40.0 1.179e+04 6.763e-09
 57.38386     38.0 1.176e+04 6.608e-09
 57.39385     37.6 1.205e+04 8.901e-09
 57.41358     35.4 1.206e+04 9.110e-09
 57.43357     33.3 1.208e+04 9.081e-09
 57.45356     31.4 1.213e+04 9.142e-09
 57.46980     29.8 1.208e+04 9.404e-09
 57.47980     29.4 1.222e+04 1.170e-08
 57.49354     28.3 1.203e+04 1.107e-08
 57.51353     27.4 1.187e+04 1.041e-08
 57.53351     26.4 1.178e+04 1.020e-08
 57.55350     25.5 1.173e+04 1.033e-08
 57.56575     24.9 1.164e+04 1.040e-08
 57.57574     24.5 1.140e+04 9.187e-09
 57.59348     24.4 1.125e+04 8.867e-09
 57.61347     24.6 1.104e+04 8.093e-09
 57.63346     25.0 1.074e+04 6.921e-09
 57.65169     25.8 1.042e+04 5.892e-09
 57.66169     25.7 1.018e+04 4.844e-09
 57.68353     26.4 9.978e+03 3.220e-09
 57.72360     28.0 9.828e+03 2.627e-09
 57.76358     29.9 9.626e+03 2.251e-09
 57.80355     31.8 9.505e+03 2.091e-09
 57.83378     33.4 9.600e+03 2.111e-09
 57.85377     33.7 9.619e+03 2.574e-09
 57.88351     34.8 9.896e+03 2.842e-09
 57.91339     35.8 1.001e+04 2.788e-09
 57.92953     36.3 1.012e+04 2.858e-09
 57.93952     36.2 1.024e+04 3.922e-09
 57.95327     36.7 1.036e+04 4.408e-09
 57.97326     37.3 1.050e+04 4.931e-09
 57.99325     37.9 1.061e+04 5.472e-09
 58.01324     38.4 1.070e+04 5.921e-09
 58.02547     38.9 1.077e+04 6.424e-09
 58.03546     38.5 1.096e+04 8.178e-09
 58.05321     38.9 1.101e+04 8.312e-09
 58.07320     39.3 1.106e+04 8.410e-09
 58.09319     39.7 1.114e+04 8.618e-09
 58.11142     39.9 1.121e+04 8.927e-09
 58.12141     38.9 1.106e+04 8.051e-09
 58.13317     39.0 1.106e+04 7.926e-09
 58.15316     39.0 1.104e+04 7.813e-09
 58.17314     39.1 1.098e+04 7.629e-09
 58.19313     39.3 1.090e+04 7.394e-09
 58.20736     39.4 1.080e+04 7.067e-09
 58.21735     38.3 1.039e+04 5.419e-09
 58.23311     38.5 1.028e+04 5.000e-09
 58.25310     38.6 1.016e+04 4.604e-09
 58.27309     38.7 1.009e+04 4.376e-09
 58.29308     38.8 1.005e+04 4.238e-09
 58.30330     39.0 1.007e+04 4.298e-09
 58.31330     38.3 9.831e+03 3.269e-09
 58.33305     38.4 9.844e+03 3.296e-09
 58.35304     38.4 9.880e+03 3.255e-09
 58.37303     38.4 9.874e+03 3.176e-09
 58.38925     38.3 9.899e+03 3.030e-09
 58.40934     38.0 9.794e+03 2.636e-09
 58.44318     37.7 9.905e+03 2.621e-09
 58.47307     37.6 1.001e+04 2.893e-09
 58.48519     37.3 1.020e+04 3.641e-09
 58.49519     36.9 1.009e+04 3.149e-09
 58.51295     36.8 1.031e+04 4.193e-09
 58.53294     36.6 1.063e+04 5.699e-09
 58.55293     36.5 1.100e+04 7.641e-09
 58.57114     36.3 1.140e+04 9.932e-09
 58.58113     35.9 1.111e+04 7.657e-09
 58.59290     35.5 1.144e+04 9.198e-09
 58.61289     35.0 1.168e+04 9.715e-09
 58.63288     34.3 1.167e+04 9.534e-09
 58.65287     33.6 1.162e+04 8.736e-09
 58.66708     32.3 1.178e+04 8.039e-09
 58.67708     32.5 1.149e+04 6.869e-09
 58.69284     31.2 1.170e+04 7.134e-09
 58.70779     26.8 1.514e+04 9.974e-09
 58.71496      9.0 2.455e+04 6.861e-08
 58.71995     13.5 2.329e+04 3.362e-08
 58.72773      2.0 1.986e+04 4.502e-07
 58.73772      2.6 1.838e+04 1.202e-06
 58.74772      5.2 1.815e+04 9.442e-07
 58.75771      5.8 1.899e+04 4.059e-07
 58.76293      2.9 2.331e+04 8.346e-08
 58.76792      4.7 2.226e+04 1.137e-07
 58.77770     -4.2 2.390e+04 2.310e-08
 58.79274    -14.0 1.577e+04 8.292e-09
 58.81278    -18.8 1.206e+04 5.459e-09
 58.83276    -19.1 1.224e+04 5.505e-09
 58.84897    -20.8 1.288e+04 8.032e-09
 58.85897    -20.3 1.254e+04 6.544e-09
 58.87274    -22.3 1.320e+04 9.636e-09
 58.89273    -24.4 1.376e+04 1.849e-08
 58.91272    -27.4 1.500e+04 3.473e-08
 58.93271    -31.3 1.661e+04 6.249e-08
 58.94487    -34.7 1.733e+04 8.531e-08
 58.94977    -34.3 1.740e+04 8.196e-08
 58.95760    -34.3 1.804e+04 9.937e-08
 58.96764    -39.0 1.770e+04 1.079e-07
 58.97758    -40.8 1.809e+04 1.146e-07
 58.98758    -44.4 1.700e+04 9.565e-08
 58.99279    -45.7 1.693e+04 7.869e-08
 58.99779    -45.1 1.721e+04 8.986e-08
 59.01261    -48.9 1.616e+04 5.559e-08
 59.03086    -54.8 1.424e+04 1.832e-08
 59.04086    -51.6 1.550e+04 3.624e-08
 59.05264    -57.8 1.309e+04 1.209e-08
 59.07263    -61.3 1.159e+04 6.967e-09
 59.09261    -62.3 1.133e+04 5.786e-09
 59.11260    -63.4 1.122e+04 4.987e-09
 59.12680    -64.2 1.107e+04 4.524e-09
 59.13680    -63.9 1.127e+04 4.520e-09
 59.15258    -64.4 1.109e+04 4.178e-09
 59.17257    -64.5 1.099e+04 3.815e-09
 59.19256    -64.4 1.089e+04 3.302e-09
 59.21254    -64.4 1.078e+04 2.771e-09
 59.22275    -64.5 1.065e+04 2.366e-09
 59.23274    -65.0 1.078e+04 2.797e-09
 59.25252    -65.4 1.065e+04 2.653e-09
 59.27251    -65.7 1.058e+04 2.654e-09
 59.29250    -65.9 1.053e+04 2.754e-09
 59.30870    -66.1 1.067e+04 3.012e-09
 59.31869    -68.1 1.148e+04 5.499e-09
 59.33248    -68.8 1.176e+04 6.933e-09
 59.35246    -69.3 1.204e+04 8.772e-09
 59.37245    -69.8 1.230e+04 1.109e-08
 59.39244    -70.2 1.255e+04 1.350e-08
 59.40464    -70.7 1.282e+04 1.646e-08
 59.41463    -71.8 1.398e+04 3.177e-08
 59.43242    -72.6 1.439e+04 3.740e-08
 59.45241    -73.5 1.499e+04 4.784e-08
 59.47239    -74.3 1.571e+04 6.437e-08
 59.49059    -75.1 1.629e+04 8.245e-08
 59.50058    -76.7 1.634e+04 8.348e-08
 59.51237    -77.8 1.641e+04 8.664e-08
 59.53236    -78.7 1.589e+04 7.123e-08
 59.55235    -79.3 1.488e+04 4.413e-08
 59.57234    -80.2 1.363e+04 2.455e-08
 59.58653    -81.3 1.252e+04 1.400e-08
 59.59652    -83.2 1.140e+04 7.147e-09
 59.61231    -84.0 1.087e+04 5.096e-09
 59.63230    -84.5 1.069e+04 4.311e-09
 59.65229    -85.0 1.068e+04 4.147e-09
 59.67228    -85.9 1.098e+04 4.280e-09
 59.68247    -87.8 1.156e+04 5.280e-09
 59.69246    -90.9 1.199e+04 6.680e-09
 59.71226    -92.2 1.232e+04 1.060e-08
 59.73224    -92.9 1.260e+04 1.430e-08
 59.75223    -93.4 1.276e+04 1.569e-08
 59.76842    -94.2 1.286e+04 1.482e-08
 59.77841    -95.7 1.272e+04 1.328e-08
 59.79221    -97.1 1.262e+04 1.046e-08
 59.81220    -99.8 1.268e+04 9.583e-09
 59.83219   -104.4 1.371e+04 1.122e-08
 59.85217   -109.5 1.527e+04 2.433e-08
 59.86436   -113.4 1.627e+04 4.913e-08
 59.87435   -115.8 1.647e+04 5.928e-08
 59.89215   -119.9 1.669e+04 6.520e-08
 59.91214   -124.7 1.618e+04 5.169e-08
 59.93213   -130.1 1.463e+04 2.907e-08
 59.95031   -134.8 1.325e+04 2.068e-08
 59.96030   -136.4 1.225e+04 1.366e-08
 59.97211   -138.0 1.199e+04 1.304e-08
 59.99209   -138.6 1.192e+04 1.319e-08
 60.01208   -139.1 1.188e+04 1.350e-08
 60.03207   -139.4 1.170e+04 1.215e-08
 60.04625   -139.6 1.133e+04 9.710e-09
 60.05624   -139.9 1.073e+04 6.744e-09
 60.07205   -140.2 1.042e+04 5.182e-09
 60.09204   -140.5 1.014e+04 4.009e-09
 60.11202   -140.6 9.939e+03 3.324e-09
 60.13201   -140.6 9.803e+03 2.926e-09
 60.16209   -140.4 9.649e+03 2.491e-09
 60.20217   -139.7 9.640e+03 2.522e-09
 60.22834   -138.8 9.627e+03 2.519e-09
 60.24832   -138.6 9.333e+03 1.851e-09
 60.28212   -137.8 9.434e+03 2.051e-09
 60.32210   -137.3 9.694e+03 2.659e-09
 60.36208   -137.0 1.003e+04 3.570e-09
 60.40023   -137.1 1.037e+04 4.618e-09
 60.42022   -137.3 1.017e+04 4.170e-09
 60.44203   -137.9 1.030e+04 4.474e-09
 60.48201   -138.2 1.031e+04 4.444e-09
 60.52198   -138.5 1.016e+04 3.771e-09
 60.55187   -138.4 9.968e+03 3.072e-09
 60.57176   -138.2 9.955e+03 2.964e-09
 60.59202   -138.2 9.994e+03 2.836e-09
 60.61211   -138.5 9.848e+03 2.521e-09
 60.64191   -138.6 9.820e+03 2.387e-09
 60.68189   -138.8 9.748e+03 2.139e-09
 60.72187   -138.8 9.651e+03 1.802e-09
 60.76185   -138.5 9.563e+03 1.459e-09
 60.78400   -137.9 9.538e+03 1.232e-09
 60.80399   -138.1 9.501e+03 1.137e-09
 60.84180   -137.5 9.516e+03 9.741e-10
 60.88178   -137.0 9.533e+03 9.375e-10
 60.92175   -136.6 9.610e+03 9.965e-10
 60.95590   -136.4 9.723e+03 1.247e-09
 60.97589   -136.3 9.713e+03 1.096e-09
 61.00171   -136.0 9.853e+03 1.476e-09
 61.04168   -135.8 9.990e+03 1.760e-09
 61.08166   -135.6 1.010e+04 1.856e-09
 61.12164   -135.5 1.014e+04 1.866e-09
 61.14778   -135.4 1.019e+04 1.828e-09
 61.16777   -135.2 1.022e+04 1.960e-09
 61.20159   -135.1 1.030e+04 1.889e-09
 61.24157   -135.1 1.038e+04 1.753e-09
 61.28154   -134.9 1.041e+04 1.587e-09
 61.31968   -134.8 1.034e+04 1.420e-09
 61.33967   -134.4 1.036e+04 1.388e-09
 61.36150   -134.1 1.025e+04 1.240e-09
 61.40148   -133.8 1.020e+04 1.210e-09
 61.44145   -133.4 1.013e+04 1.305e-09
 61.48143   -132.9 1.011e+04 1.554e-09
 61.51156   -132.4 1.013e+04 1.797e-09
 61.53155   -131.9 1.018e+04 1.726e-09
 61.56138   -131.6 1.022e+04 1.914e-09
 61.60136   -131.3 1.029e+04 1.994e-09
 61.64134   -131.2 1.031e+04 2.009e-09
 61.68131   -131.1 1.033e+04 2.012e-09
 61.70345   -131.1 1.037e+04 2.136e-09
 61.72344   -131.5 1.043e+04 2.234e-09
 61.76127   -131.5 1.049e+04 2.407e-09
 61.80124   -131.5 1.059e+04 2.684e-09
 61.84122   -131.4 1.063e+04 2.878e-09
 61.87534   -131.4 1.061e+04 3.002e-09
 61.89533   -131.8 1.068e+04 3.049e-09
 61.92118   -132.2 1.099e+04 3.804e-09
 61.96115   -133.1 1.155e+04 5.438e-09
 62.00113   -134.6 1.200e+04 7.296e-09
 62.04111   -136.6 1.213e+04 7.920e-09
 62.06723   -138.4 1.196e+04 7.323e-09
 62.08722   -140.7 1.221e+04 8.803e-09
 62.12106   -142.0 1.178e+04 5.731e-09
 62.16104   -142.8 1.166e+04 4.605e-09
 62.20101   -143.4 1.165e+04 4.453e-09
 62.23912   -143.8 1.197e+04 4.993e-09
 62.25911   -145.8 1.202e+04 5.022e-09
 62.28097   -146.2 1.239e+04 7.168e-09
 62.32094   -146.7 1.267e+04 9.673e-09
 62.36092   -147.2 1.282e+04 1.169e-08
 62.40090   -148.0 1.284e+04 1.330e-08
 62.43078   -148.7 1.268e+04 1.333e-08
 62.44081   -148.4 1.276e+04 1.475e-08
 62.45080   -149.6 1.275e+04 1.458e-08
 62.47066   -149.4 1.294e+04 1.647e-08
 62.49065   -149.2 1.315e+04 1.848e-08
 62.51064   -149.3 1.325e+04 1.923e-08
 62.52676   -149.6 1.326e+04 1.929e-08
 62.53675   -150.8 1.291e+04 1.571e-08
 62.55062   -151.1 1.290e+04 1.560e-08
 62.57061   -151.4 1.283e+04 1.465e-08
 62.59059   -151.7 1.269e+04 1.316e-08
 62.61058   -152.0 1.251e+04 1.156e-08
 62.62270   -152.4 1.233e+04 1.027e-08
 62.63269   -153.3 1.247e+04 1.119e-08
 62.65056   -153.7 1.250e+04 1.134e-08
 62.67055   -154.3 1.259e+04 1.198e-08
 62.69054   -154.8 1.267e+04 1.285e-08
 62.70865   -155.2 1.270e+04 1.350e-08
 62.71864   -156.5 1.296e+04 1.599e-08
 62.73051   -156.7 1.276e+04 1.541e-08
 62.75050   -156.8 1.248e+04 1.380e-08
 62.77049   -156.6 1.222e+04 1.216e-08
 62.79048   -156.1 1.200e+04 1.091e-08
 62.80459   -155.4 1.177e+04 9.993e-09
 62.81458   -156.3 1.154e+04 9.090e-09
 62.83046   -155.5 1.137e+04 8.211e-09
 62.85044   -154.5 1.128e+04 7.789e-09
 62.87043   -153.5 1.126e+04 7.682e-09
 62.89042   -152.4 1.128e+04 7.759e-09
 62.90053   -151.4 1.133e+04 8.130e-09
 62.90368   -151.9 1.111e+04 7.100e-09
 62.91356   -151.8 1.127e+04 7.603e-09
 62.93040   -150.7 1.139e+04 8.446e-09
 62.95039   -149.5 1.155e+04 9.652e-09
 62.97037   -148.3 1.177e+04 1.104e-08
 62.98648   -146.9 1.202e+04 1.246e-08
 62.99647   -148.1 1.205e+04 1.222e-08
 63.01035   -147.0 1.231e+04 1.365e-08
 63.03034   -146.0 1.255e+04 1.468e-08
 63.05033   -145.1 1.281e+04 1.556e-08
 63.07032   -144.4 1.332e+04 1.667e-08
 63.08242   -144.2 1.415e+04 1.805e-08
 63.09241   -148.5 1.346e+04 1.649e-08
 63.11029   -149.3 1.407e+04 1.729e-08
 63.12524   -148.7 1.428e+04 1.690e-08
 63.13029   -149.7 1.435e+04 1.685e-08
 63.13529   -152.6 1.439e+04 1.655e-08
 63.14518   -158.7 1.816e+04 1.720e-08
 63.15517   -167.6 2.392e+04 3.034e-08
 63.16516   -176.5 2.312e+04 9.767e-08
 63.17327   -182.3 2.066e+04 2.654e-07
 63.17826   -182.3 2.030e+04 2.170e-07
 63.18515   -185.1 1.918e+04 3.847e-07
 63.19515   -186.6 1.888e+04 4.760e-07
 63.20514   -187.6 1.887e+04 4.927e-07
 63.21514   -188.4 1.922e+04 3.850e-07
 63.22124   -189.7 1.954e+04 1.940e-07
 63.22624   -188.6 1.887e+04 1.727e-07
 63.23512   -191.0 1.825e+04 7.278e-08
 63.24512   -194.2 1.584e+04 3.194e-08
 63.25511   -196.3 1.352e+04 2.144e-08
 63.26421   -196.7 1.297e+04 1.933e-08
 63.27426   -195.8 1.273e+04 1.704e-08
 63.29019   -195.8 1.248e+04 1.473e-08
 63.31018   -195.3 1.352e+04 1.396e-08
 63.33017   -194.9 1.485e+04 1.777e-08
 63.34511   -194.6 1.493e+04 1.844e-08
 63.35505   -194.8 1.548e+04 2.292e-08
 63.36016   -194.8 1.605e+04 3.215e-08
 63.37020   -194.8 1.541e+04 2.238e-08
 63.38509   -194.8 1.592e+04 3.331e-08
 63.39503   -195.1 1.631e+04 4.406e-08
 63.40313   -195.5 1.660e+04 6.008e-08
 63.40813   -195.2 1.596e+04 4.006e-08
 63.41502   -195.6 1.619e+04 4.922e-08
 63.42501   -196.0 1.642e+04 6.548e-08
 63.43501   -196.4 1.664e+04 8.731e-08
 63.44500   -196.7 1.687e+04 1.143e-07
 63.45110   -196.9 1.726e+04 1.309e-07
 63.45610   -197.1 1.676e+04 1.028e-07
 63.46499   -197.3 1.719e+04 1.210e-07
 63.47499   -197.6 1.753e+04 1.265e-07
 63.48498   -198.4 1.754e+04 1.141e-07
 63.49407   -199.8 1.727e+04 9.484e-08
 63.49907   -199.2 1.752e+04 1.064e-07
 63.51001   -201.5 1.678e+04 7.722e-08
 63.53005   -204.3 1.569e+04 4.797e-08
 63.54214   -208.2 1.392e+04 2.547e-08
 63.55214   -207.7 1.473e+04 3.409e-08
 63.57003   -212.6 1.248e+04 1.757e-08
 63.59002   -216.1 1.117e+04 1.167e-08
 63.61000   -217.9 1.073e+04 9.943e-09
 63.62809   -218.9 1.059e+04 9.391e-09
 63.63809   -220.6 1.050e+04 9.387e-09
 63.64998   -221.3 1.042e+04 8.965e-09
 63.66997   -221.9 1.036e+04 8.594e-09
 63.68996   -222.3 1.029e+04 8.277e-09
 63.70995   -222.7 1.020e+04 8.024e-09
 63.72403   -223.0 1.011e+04 7.808e-09
 63.73403   -224.3 9.965e+03 7.206e-09
 63.74992   -224.6 9.874e+03 7.019e-09
 63.76991   -224.8 9.811e+03 6.898e-09
 63.78990   -225.1 9.784e+03 6.855e-09
 63.80989   -225.6 9.783e+03 6.852e-09
 63.82988   -227.3 9.865e+03 7.112e-09
 63.84987   -228.2 1.027e+04 8.377e-09
 63.86985   -229.3 1.074e+04 1.017e-08
 63.88984   -230.5 1.122e+04 1.240e-08
 63.90592   -232.1 1.163e+04 1.491e-08
 63.91592   -233.0 1.159e+04 1.498e-08
 63.92982   -234.6 1.185e+04 1.720e-08
 63.94981   -236.1 1.195e+04 1.833e-08
 63.96980   -237.6 1.195e+04 1.852e-08
 63.98979   -238.9 1.183e+04 1.788e-08
 64.00187   -240.2 1.152e+04 1.521e-08
 64.01186   -240.3 1.154e+04 1.546e-08
 64.02976   -241.3 1.115e+04 1.256e-08
 64.04975   -242.3 1.083e+04 1.041e-08
 64.06974   -243.3 1.066e+04 9.144e-09
 64.08781   -244.2 1.070e+04 8.549e-09
 64.09781   -243.9 1.067e+04 8.554e-09
 64.10972   -244.7 1.072e+04 8.318e-09
 64.12970   -245.6 1.078e+04 8.103e-09
 64.14969   -246.6 1.079e+04 7.746e-09
 64.16968   -247.6 1.072e+04 7.317e-09
 64.18376   -248.6 1.063e+04 6.988e-09
 64.19375   -247.9 1.058e+04 6.601e-09
 64.20966   -248.9 1.053e+04 6.456e-09
 64.22965   -249.9 1.052e+04 6.445e-09
 64.24964   -250.8 1.050e+04 6.718e-09
 64.26962   -251.5 1.051e+04 7.391e-09
 64.28961   -251.5 1.052e+04 7.819e-09
 64.30960   -251.9 1.050e+04 8.139e-09
 64.32959   -252.2 1.048e+04 8.183e-09
 64.34958   -252.3 1.027e+04 7.837e-09
 64.36565   -252.4 1.001e+04 6.708e-09
 64.37564   -251.9 1.005e+04 6.975e-09
 64.38955   -252.0 9.768e+03 5.742e-09
 64.40954   -252.1 9.512e+03 4.728e-09
 64.42953   -252.3 9.318e+03 4.103e-09
 64.44952   -252.4 9.212e+03 3.851e-09
 64.46159   -252.3 9.182e+03 3.802e-09
 64.47158   -251.7 9.219e+03 3.897e-09
 64.48950   -251.7 9.217e+03 3.917e-09
 64.50949   -251.6 9.236e+03 4.087e-09
 64.52947   -251.5 9.264e+03 4.275e-09
 64.54754   -251.4 9.272e+03 4.359e-09
 64.55753   -251.0 9.399e+03 4.738e-09
 64.56945   -250.9 9.401e+03 4.767e-09
 64.58944   -251.0 9.354e+03 4.711e-09
 64.60943   -251.0 9.214e+03 4.402e-09
 64.62942   -250.9 9.059e+03 4.042e-09
 64.64348   -250.9 8.958e+03 3.802e-09
 64.65347   -250.6 9.163e+03 4.352e-09
 64.66939   -250.5 9.133e+03 4.274e-09
 64.68938   -250.5 9.133e+03 4.270e-09
 64.70937   -250.6 9.218e+03 4.417e-09
 64.72936   -250.8 9.384e+03 4.827e-09
 64.75944   -251.5 9.650e+03 5.601e-09
 64.79951   -252.9 9.945e+03 6.679e-09
 64.82556   -254.6 1.044e+04 8.607e-09
 64.84555   -255.0 1.082e+04 1.053e-08
 64.86938   -256.3 1.104e+04 1.219e-08
 64.88154   -257.1 1.131e+04 1.381e-08
 64.89153   -257.2 1.133e+04 1.356e-08
 64.90925   -258.1 1.190e+04 1.741e-08
 64.92131   -259.5 1.290e+04 2.613e-08
 64.93131   -259.2 1.256e+04 2.244e-08
 64.94923   -260.6 1.359e+04 3.432e-08
 64.96922   -261.7 1.453e+04 5.086e-08
 64.98921   -263.0 1.522e+04 6.620e-08
 65.00726   -264.6 1.550e+04 7.188e-08
 65.01725   -264.3 1.542e+04 6.905e-08
 65.02919   -266.2 1.548e+04 7.050e-08
 65.04917   -267.9 1.524e+04 6.449e-08
 65.06916   -269.4 1.459e+04 4.866e-08
 65.08915   -270.9 1.378e+04 3.490e-08
 65.10320   -272.3 1.299e+04 2.573e-08
 65.11320   -271.6 1.303e+04 2.589e-08
 65.12913   -272.8 1.245e+04 2.069e-08
 65.14912   -273.6 1.201e+04 1.754e-08
 65.16910   -274.0 1.167e+04 1.498e-08
 65.18909   -274.3 1.136e+04 1.269e-08
 65.20908   -274.0 1.125e+04 1.171e-08
 65.22907   -274.2 1.098e+04 9.879e-09
 65.24906   -274.5 1.073e+04 8.416e-09
 65.26905   -274.8 1.053e+04 7.378e-09
 65.28509   -275.1 1.039e+04 6.717e-09
 65.29509   -274.6 1.043e+04 6.619e-09
 65.30902   -275.0 1.030e+04 6.046e-09
 65.32901   -275.4 1.021e+04 5.721e-09
 65.34900   -275.6 1.017e+04 5.541e-09
 65.36899   -275.7 1.017e+04 5.434e-09
 65.38103   -275.7 1.016e+04 5.344e-09
 65.39103   -275.4 1.010e+04 5.048e-09
 65.40897   -275.3 1.008e+04 4.939e-09
 65.42895   -275.2 1.005e+04 4.824e-09
 65.44894   -275.0 1.002e+04 4.750e-09
 65.46698   -275.0 9.980e+03 4.660e-09
 65.47698   -274.2 9.957e+03 4.292e-09
 65.48892   -274.3 9.891e+03 4.072e-09
 65.51900   -274.6 9.658e+03 3.530e-09
 65.55313   -274.3 9.368e+03 2.883e-09
 65.57311   -272.8 9.583e+03 3.162e-09
 65.59905   -272.6 9.237e+03 2.455e-09
 65.63903   -272.2 8.880e+03 1.801e-09
 65.67901   -271.6 8.655e+03 1.369e-09
 65.71898   -270.9 8.643e+03 1.155e-09
 65.74501   -270.2 8.674e+03 1.092e-09
 65.76500   -269.6 8.678e+03 1.087e-09
 65.79894   -268.9 8.689e+03 1.060e-09
 65.83891   -268.1 8.693e+03 1.055e-09
 65.87889   -267.4 8.766e+03 1.089e-09
 65.91691   -266.6 8.976e+03 1.362e-09
 65.93689   -266.0 8.956e+03 1.272e-09
 65.95884   -265.4 9.141e+03 1.595e-09
 65.99882   -264.8 9.334e+03 1.949e-09
 66.03880   -264.4 9.510e+03 2.191e-09
 66.07877   -264.0 9.609e+03 2.253e-09
 66.10879   -263.5 9.637e+03 2.241e-09
 66.12878   -262.9 9.520e+03 1.921e-09
 66.15873   -262.1 9.565e+03 1.950e-09
 66.19871   -261.0 9.628e+03 1.981e-09
 66.23868   -259.7 9.711e+03 2.069e-09
 66.27866   -258.4 9.845e+03 2.243e-09
 66.30068   -257.2 1.001e+04 2.509e-09
 66.32066   -256.9 1.009e+04 2.657e-09
 66.35861   -256.2 1.025e+04 2.918e-09
 66.39859   -255.7 1.037e+04 3.179e-09
 66.43857   -255.3 1.049e+04 3.474e-09
 66.47257   -255.1 1.061e+04 3.821e-09
 66.49256   -255.0 1.060e+04 3.772e-09
 66.51852   -254.9 1.073e+04 4.224e-09
 66.55850   -254.8 1.088e+04 4.645e-09
 66.59847   -254.8 1.102e+04 4.895e-09
 66.63845   -254.9 1.106e+04 4.948e-09
 66.66446   -255.1 1.111e+04 4.823e-09
 66.68444   -255.2 1.110e+04 4.837e-09
 66.71841   -255.3 1.109e+04 3.995e-09
 66.75838   -255.2 1.100e+04 3.001e-09
 66.79836   -254.9 1.093e+04 2.286e-09
 66.83635   -254.2 1.100e+04 1.897e-09
 66.85634   -254.1 1.099e+04 1.882e-09
 66.85971   -253.3 1.106e+04 1.799e-09
 66.87970   -253.5 1.110e+04 1.797e-09
 66.91829   -252.9 1.113e+04 1.789e-09
 66.95827   -252.6 1.135e+04 1.785e-09
 66.99824   -252.3 1.156e+04 1.879e-09
 67.02824   -252.1 1.172e+04 2.079e-09
 67.04823   -252.0 1.178e+04 2.261e-09
 67.07820   -251.8 1.196e+04 2.803e-09
 67.11817   -251.4 1.218e+04 3.610e-09
 67.15815   -250.9 1.241e+04 4.658e-09
 67.19813   -250.3 1.264e+04 5.891e-09
 67.22012   -249.7 1.283e+04 7.237e-09
 67.24011   -249.7 1.285e+04 6.800e-09
 67.27808   -248.9 1.296e+04 7.058e-09
 67.31806   -247.9 1.301e+04 7.034e-09
 67.35804   -246.8 1.310e+04 6.873e-09
 67.39202   -245.6 1.327e+04 6.484e-09
 67.41201   -245.2 1.297e+04 4.697e-09
 67.43799   -244.0 1.311e+04 4.660e-09
 67.46787   -243.2 1.320e+04 5.242e-09
 67.48776   -243.1 1.306e+04 5.717e-09
 67.50775   -242.4 1.309e+04 5.939e-09
 67.52774   -242.3 1.292e+04 6.798e-09
 67.54773   -242.2 1.293e+04 7.326e-09
 67.56772   -242.1 1.290e+04 7.570e-09
 67.58371   -242.0 1.289e+04 7.618e-09
 67.59370   -241.5 1.297e+04 8.018e-09
 67.60770   -241.5 1.292e+04 7.989e-09
 67.62768   -241.5 1.277e+04 7.321e-09
 67.64767   -241.4 1.261e+04 6.234e-09
 67.66766   -241.1 1.247e+04 5.226e-09
 67.67965   -240.6 1.237e+04 4.501e-09
 67.68964   -240.3 1.247e+04 4.785e-09
 67.70764   -239.8 1.241e+04 4.277e-09
 67.72763   -239.2 1.242e+04 4.060e-09
 67.74762   -238.6 1.244e+04 4.022e-09
 67.76560   -238.0 1.248e+04 4.026e-09
 67.77559   -237.8 1.251e+04 4.071e-09
 67.78759   -237.4 1.264e+04 4.106e-09
 67.80758   -237.3 1.278e+04 4.295e-09
 67.82757   -237.2 1.290e+04 4.582e-09
 67.84756   -237.2 1.302e+04 4.954e-09
 67.86154   -237.3 1.316e+04 5.399e-09
 67.87153   -236.9 1.311e+04 5.086e-09
 67.88753   -237.0 1.326e+04 5.509e-09
 67.90752   -237.3 1.339e+04 5.933e-09
 67.92751   -237.7 1.347e+04 6.309e-09
 67.94749   -238.0 1.350e+04 6.547e-09
 67.96748   -237.5 1.357e+04 6.671e-09
 67.98748   -237.5 1.357e+04 6.744e-09
 68.00747   -237.5 1.356e+04 6.710e-09
 68.02745   -237.4 1.357e+04 6.582e-09
 68.04343   -237.1 1.358e+04 6.442e-09
 68.05342   -236.5 1.365e+04 7.045e-09
 68.06743   -236.2 1.366e+04 6.978e-09
 68.08742   -235.8 1.366e+04 6.974e-09
 68.10741   -235.4 1.378e+04 7.025e-09
 68.12740   -235.1 1.387e+04 7.530e-09
 68.13937   -234.8 1.390e+04 8.323e-09
 68.14937   -234.3 1.393e+04 8.588e-09
 68.16737   -234.0 1.394e+04 9.213e-09
 68.18736   -233.8 1.392e+04 9.880e-09
 68.20735   -233.6 1.387e+04 1.050e-08
 68.22532   -233.5 1.380e+04 1.101e-08
 68.23531   -233.1 1.377e+04 1.043e-08
 68.24733   -233.0 1.367e+04 1.069e-08
 68.26732   -232.9 1.359e+04 1.087e-08
 68.28730   -232.6 1.356e+04 1.093e-08
 68.30729   -232.3 1.349e+04 1.088e-08
 68.32126   -232.0 1.346e+04 9.948e-09
 68.33126   -231.3 1.346e+04 1.059e-08
 68.34727   -231.0 1.346e+04 1.002e-08
 68.36726   -230.8 1.345e+04 9.056e-09
 68.38725   -230.9 1.340e+04 7.734e-09
 68.40721   -231.2 1.323e+04 6.486e-09
 68.42720   -230.4 1.336e+04 7.711e-09
 68.44721   -230.9 1.313e+04 6.758e-09
 68.46720   -231.3 1.290e+04 6.245e-09
 68.48719   -231.5 1.269e+04 5.873e-09
 68.50315   -231.5 1.250e+04 5.452e-09
 68.51315   -230.8 1.275e+04 6.547e-09
 68.52717   -230.7 1.253e+04 5.901e-09
 68.54715   -230.6 1.234e+04 5.327e-09
 68.56714   -230.2 1.216e+04 4.819e-09
 68.58713   -229.6 1.203e+04 4.370e-09
 68.59909   -228.9 1.193e+04 3.998e-09
 68.60909   -228.4 1.203e+04 4.720e-09
 68.62711   -227.7 1.196e+04 4.346e-09
 68.64710   -226.9 1.187e+04 3.989e-09
 68.66708   -226.0 1.177e+04 3.653e-09
 68.68504   -225.2 1.170e+04 3.420e-09
 68.69504   -224.1 1.183e+04 3.741e-09
 68.71715   -223.0 1.179e+04 3.446e-09
 68.75723   -221.4 1.166e+04 3.138e-09
 68.79720   -219.7 1.144e+04 2.857e-09
 68.83718   -217.8 1.118e+04 2.662e-09
 68.86713   -216.0 1.098e+04 2.532e-09
 68.88712   -215.0 1.109e+04 2.408e-09
 68.91714   -213.1 1.093e+04 2.305e-09
 68.95711   -211.1 1.081e+04 2.258e-09
 68.99709   -209.1 1.071e+04 2.235e-09
 69.03707   -207.1 1.066e+04 2.241e-09
 69.05901   -205.2 1.063e+04 2.303e-09
 69.07900   -204.1 1.072e+04 2.314e-09
 69.11702   -202.1 1.072e+04 2.455e-09
 69.15700   -200.3 1.069e+04 2.506e-09
 69.19697   -198.5 1.059e+04 2.471e-09
 69.23091   -196.8 1.046e+04 2.184e-09
 69.25090   -196.0 1.063e+04 2.459e-09
 69.27693   -194.3 1.051e+04 2.131e-09
 69.31690   -192.7 1.044e+04 1.806e-09
 69.35688   -191.4 1.043e+04 1.590e-09
 69.39686   -190.2 1.044e+04 1.510e-09
 69.42279   -189.2 1.045e+04 1.497e-09
 69.44278   -188.8 1.060e+04 1.860e-09
 69.47681   -188.1 1.062e+04 1.796e-09
 69.51679   -187.6 1.064e+04 1.713e-09
 69.55677   -187.1 1.065e+04 1.596e-09
 69.59469   -186.5 1.066e+04 1.447e-09
 69.61468   -186.1 1.070e+04 1.441e-09
 69.63672   -185.3 1.072e+04 1.279e-09
 69.67670   -184.4 1.081e+04 1.161e-09
 69.71667   -183.5 1.090e+04 1.110e-09
 69.75665   -182.8 1.095e+04 1.103e-09
 69.78657   -182.3 1.119e+04 1.168e-09
 69.80656   -181.6 1.132e+04 1.329e-09
 69.83660   -181.4 1.147e+04 1.633e-09
 69.87658   -181.4 1.166e+04 1.953e-09
 69.91656   -181.6 1.188e+04 2.129e-09
 69.95654   -182.2 1.194e+04 2.156e-09
 69.97846   -182.7 1.203e+04 2.028e-09
 69.99845   -182.0 1.212e+04 2.606e-09
 70.03649   -182.2 1.220e+04 2.185e-09
 70.07647   -182.2 1.230e+04 1.801e-09
 70.11644   -182.3 1.242e+04 1.572e-09
 70.15035   -182.3 1.249e+04 1.512e-09
 70.17034   -181.5 1.256e+04 1.735e-09
 70.19640   -181.5 1.260e+04 1.745e-09
 70.23637   -181.7 1.279e+04 1.899e-09
 70.27635   -182.2 1.293e+04 2.083e-09
 70.31633   -182.9 1.296e+04 2.136e-09
 70.34224   -183.6 1.304e+04 1.937e-09
 70.36223   -182.8 1.310e+04 2.367e-09
 70.39628   -183.2 1.319e+04 1.766e-09
 70.43626   -183.3 1.335e+04 1.260e-09
 70.47624   -183.5 1.348e+04 1.074e-09
 70.51413   -183.5 1.350e+04 1.055e-09
 70.53412   -182.5 1.361e+04 1.154e-09
 70.55619   -182.7 1.379e+04 1.209e-09
 70.59617   -183.0 1.388e+04 1.418e-09
 70.63614   -183.4 1.386e+04 1.552e-09
 70.67612   -183.6 1.384e+04 1.577e-09
 70.70602   -183.5 1.374e+04 1.513e-09
 70.72601   -182.7 1.361e+04 1.466e-09
 70.75607   -182.0 1.352e+04 1.245e-09
 70.79568   -180.9 1.344e+04 1.109e-09
 70.81567   -180.2 1.350e+04 1.032e-09
 70.83603   -178.9 1.351e+04 1.024e-09
 70.87600   -177.8 1.353e+04 1.096e-09
 70.89790   -176.8 1.353e+04 1.234e-09
 70.91789   -175.2 1.347e+04 1.109e-09
 70.95596   -174.2 1.347e+04 1.291e-09
 70.99594   -173.3 1.349e+04 1.392e-09
 71.03591   -172.5 1.351e+04 1.406e-09
 71.06980   -171.8 1.362e+04 1.343e-09
 71.08979   -170.2 1.347e+04 1.533e-09
 71.11587   -169.7 1.359e+04 1.482e-09
 71.15584   -169.4 1.366e+04 1.464e-09
 71.19582   -169.9 1.417e+04 1.960e-09
 71.23580   -171.3 1.419e+04 5.474e-09
 71.26168   -173.1 1.409e+04 1.222e-08
 71.28167   -170.5 1.427e+04 9.331e-09
 71.31575   -172.8 1.412e+04 1.521e-08
 71.35573   -175.3 1.399e+04 1.677e-08
 71.39570   -176.9 1.334e+04 1.559e-08
 71.43358   -177.2 1.284e+04 1.076e-08
 71.45357   -175.2 1.299e+04 1.135e-08
 71.47566   -175.2 1.263e+04 7.455e-09
 71.51564   -174.9 1.233e+04 5.184e-09
 71.55561   -174.3 1.210e+04 3.982e-09
 71.59559   -173.7 1.188e+04 3.412e-09
 71.62547   -173.1 1.167e+04 3.173e-09
 71.64545   -171.3 1.185e+04 3.362e-09
 71.67554   -170.7 1.163e+04 3.189e-09
 71.71552   -169.8 1.140e+04 2.892e-09
 71.75550   -168.7 1.119e+04 2.394e-09
 71.79547   -167.1 1.103e+04 1.858e-09
 71.81735   -165.4 1.092e+04 1.424e-09
 71.83734   -164.0 1.103e+04 1.797e-09
 71.87543   -162.3 1.097e+04 1.464e-09
 71.91540   -160.6 1.097e+04 1.208e-09
 71.95538   -159.0 1.098e+04 1.017e-09
 71.98925   -157.4 1.095e+04 8.889e-10
 72.00923   -156.0 1.099e+04 1.208e-09
 72.03533   -154.3 1.094e+04 1.047e-09
 72.07531   -152.4 1.092e+04 9.562e-10
 72.11529   -150.5 1.094e+04 9.311e-10
 72.15527   -148.6 1.099e+04 9.268e-10
 72.18113   -146.8 1.107e+04 9.283e-10
 72.20112   -145.5 1.110e+04 9.910e-10
 72.23522   -143.8 1.115e+04 9.778e-10
 72.27520   -142.0 1.120e+04 9.502e-10
 72.31517   -140.2 1.120e+04 8.997e-10
 72.35303   -138.4 1.125e+04 8.224e-10
 72.37301   -137.5 1.133e+04 8.325e-10
 72.39513   -135.7 1.140e+04 7.500e-10
 72.43510   -133.9 1.146e+04 6.847e-10
 72.47508   -132.1 1.151e+04 6.509e-10
 72.51506   -130.4 1.153e+04 6.442e-10
 72.54491   -128.9 1.165e+04 6.606e-10
 72.56490   -128.3 1.162e+04 6.730e-10
 72.59501   -127.0 1.171e+04 7.466e-10
 72.63499   -125.7 1.182e+04 8.130e-10
 72.67497   -124.5 1.189e+04 8.297e-10
 72.71494   -123.3 1.195e+04 8.191e-10
 72.73680   -122.1 1.208e+04 7.764e-10
 72.75678   -121.5 1.209e+04 7.689e-10
 72.79490   -120.3 1.220e+04 7.344e-10
 72.83487   -119.8 1.234e+04 7.305e-10
 72.87485   -119.7 1.270e+04 9.684e-10
 72.90869   -119.7 1.252e+04 1.860e-09
 72.92868   -118.6 1.244e+04 1.329e-09
 72.95480   -118.3 1.239e+04 1.963e-09
 72.99478   -117.8 1.247e+04 2.440e-09
 73.03476   -117.3 1.252e+04 2.560e-09
 73.07473   -116.5 1.253e+04 2.524e-09
 73.10058   -115.4 1.261e+04 2.055e-09
 73.12056   -114.7 1.254e+04 1.413e-09
 73.15469   -113.6 1.269e+04 1.104e-09
 73.19467   -112.4 1.286e+04 8.818e-10
 73.23464   -111.2 1.303e+04 7.446e-10
 73.27247   -110.0 1.317e+04 6.909e-10
 73.29246   -109.3 1.289e+04 6.180e-10
 73.31460   -107.9 1.293e+04 6.131e-10
 73.35457   -106.8 1.326e+04 6.473e-10
 73.39455   -105.8 1.343e+04 8.099e-10
 73.43453   -104.9 1.345e+04 1.024e-09
 73.46436   -104.1 1.341e+04 1.211e-09
 73.48435   -103.8 1.342e+04 1.260e-09
 73.51448   -103.2 1.340e+04 1.360e-09
 73.55446   -102.5 1.334e+04 1.417e-09
 73.59443   -101.7 1.329e+04 1.487e-09
 73.63441   -100.8 1.333e+04 1.582e-09
 73.65624   -100.4 1.346e+04 1.735e-09
 73.67623   -100.7 1.331e+04 1.813e-09
 73.71437   -101.0 1.365e+04 2.104e-09
 73.75434   -101.5 1.360e+04 3.615e-09
 73.79432   -102.1 1.369e+04 7.367e-09
 73.82814   -103.0 1.399e+04 1.269e-08
 73.84813   -103.0 1.375e+04 9.536e-09
 73.87427   -104.4 1.376e+04 1.031e-08
 73.91425   -105.0 1.341e+04 9.723e-09
 73.95423   -105.0 1.315e+04 6.600e-09
 73.99420   -104.3 1.308e+04 3.682e-09
 74.02002   -102.8 1.303e+04 1.993e-09
 74.04001   -102.3 1.303e+04 1.809e-09
 74.07416   -100.5 1.310e+04 1.215e-09
 74.11413    -98.5 1.318e+04 9.238e-10
 74.15411    -96.4 1.319e+04 8.245e-10
 74.19192    -94.1 1.320e+04 8.054e-10
 74.21191    -93.8 1.290e+04 1.206e-09
 74.23407    -91.6 1.295e+04 1.207e-09
 74.27404    -89.4 1.302e+04 1.395e-09
 74.31402    -87.2 1.295e+04 1.825e-09
 74.35400    -84.9 1.288e+04 2.393e-09
 74.38380    -82.5 1.283e+04 2.980e-09
 74.40379    -82.5 1.292e+04 2.594e-09
 74.43395    -80.1 1.297e+04 2.804e-09
 74.47393    -77.6 1.304e+04 2.955e-09
 74.51390    -75.2 1.315e+04 3.136e-09
 74.55388    -73.0 1.326e+04 3.450e-09
 74.57569    -71.0 1.342e+04 4.012e-09
 74.59568    -71.8 1.353e+04 3.434e-09
 74.63383    -70.0 1.364e+04 4.464e-09
 74.67381    -68.4 1.374e+04 6.568e-09
 74.71379    -66.9 1.395e+04 1.046e-08
 74.74758    -65.8 1.431e+04 1.535e-08
 74.76544    -66.5 1.412e+04 1.547e-08
 74.77162    -68.6 1.427e+04 1.653e-08
 74.79374    -67.6 1.423e+04 1.656e-08
 74.83372    -66.3 1.395e+04 1.346e-08
 74.87370    -64.5 1.361e+04 9.035e-09
 74.91367    -62.4 1.332e+04 5.844e-09
 74.93947    -60.1 1.316e+04 3.975e-09
 74.95946    -59.5 1.295e+04 3.766e-09
 74.99363    -57.3 1.285e+04 3.022e-09
 75.03360    -55.0 1.273e+04 2.482e-09
 75.07358    -52.7 1.261e+04 2.147e-09
 75.11136    -50.5 1.247e+04 2.003e-09
 75.13135    -49.9 1.233e+04 1.951e-09
 75.15353    -47.8 1.218e+04 1.745e-09
 75.19351    -45.8 1.209e+04 1.692e-09
 75.23349    -43.8 1.205e+04 1.715e-09
 75.27346    -42.0 1.194e+04 1.869e-09
 75.30325    -40.3 1.183e+04 2.016e-09
 75.32324    -39.1 1.166e+04 1.812e-09
 75.35342    -37.3 1.156e+04 1.912e-09
 75.39340    -35.7 1.144e+04 2.060e-09
 75.43337    -34.1 1.145e+04 2.398e-09
 75.47335    -32.6 1.156e+04 2.834e-09
 75.49503    -31.7 1.135e+04 3.281e-09
 75.51502    -29.9 1.121e+04 3.034e-09
 75.54321    -29.4 1.127e+04 4.284e-09
 75.56310    -28.2 1.143e+04 5.572e-09
 75.58089    -27.5 1.159e+04 6.901e-09
 75.59088    -26.8 1.124e+04 5.589e-09
 75.60308    -26.0 1.121e+04 6.466e-09
 75.62307    -25.1 1.130e+04 7.258e-09
 75.64306    -24.1 1.135e+04 7.472e-09
 75.66304    -23.2 1.133e+04 7.221e-09
 75.67683    -22.1 1.128e+04 6.677e-09
 75.68682    -21.7 1.136e+04 6.411e-09
 75.70302    -20.9 1.126e+04 6.594e-09
 75.72301    -20.1 1.119e+04 6.661e-09
 75.75309    -19.1 1.101e+04 6.503e-09
 75.79316    -17.5 1.066e+04 5.396e-09
 75.83314    -16.2 1.036e+04 3.152e-09
 75.85891    -14.9 1.006e+04 1.809e-09
 75.87890    -13.7 1.010e+04 2.134e-09
 75.91310    -12.8 9.802e+03 1.118e-09
 75.95307    -11.6 9.602e+03 7.868e-10
 75.99305    -10.4 9.549e+03 6.826e-10
 76.03081     -8.8 9.612e+03 6.753e-10
 76.05080     -8.5 9.577e+03 7.865e-10
 76.07300     -7.3 9.474e+03 1.106e-09
 76.11298     -5.3 9.469e+03 1.507e-09
 76.15296     -3.6 9.516e+03 1.676e-09
 76.19293     -2.5 9.523e+03 1.576e-09
 76.22269     -2.0 9.611e+03 1.491e-09
 76.24268     -2.0 9.524e+03 2.366e-09
 76.27289     -0.6 9.349e+03 2.676e-09
 76.31286      1.4 9.312e+03 2.098e-09
 76.35284      3.1 9.227e+03 1.433e-09
 76.39282      4.4 9.078e+03 1.065e-09
 76.41458      6.4 8.996e+03 1.024e-09
 76.43457      6.8 8.949e+03 1.172e-09
 76.47277      8.3 9.101e+03 1.476e-09
 76.51275     10.4 9.284e+03 2.669e-09
 76.55273     13.1 9.638e+03 4.529e-09
 76.58647     15.6 9.959e+03 5.465e-09
 76.60646     15.8 9.837e+03 5.080e-09
 76.63268     18.0 9.819e+03 4.604e-09
 76.67266     20.1 9.807e+03 4.057e-09
 76.71263     21.5 1.011e+04 4.456e-09
 76.73950     22.2 1.016e+04 4.640e-09
 76.74940     22.3 1.014e+04 4.499e-09
 76.76241     23.4 1.008e+04 4.505e-09
 76.77816     23.7 1.024e+04 4.802e-09
 76.78816     23.9 1.036e+04 5.214e-09
 76.80239     24.3 1.049e+04 6.198e-09
 76.82238     24.7 1.060e+04 7.685e-09
 76.84236     25.6 1.090e+04 8.531e-09
 76.86235     25.7 1.134e+04 8.737e-09
 76.87411     26.1 1.140e+04 8.526e-09
 76.88410     26.8 1.149e+04 1.134e-08
 76.90233     26.4 1.177e+04 1.145e-08
 76.92232     26.7 1.179e+04 1.093e-08
 76.95016     26.6 1.170e+04 9.327e-09
 76.97024     27.4 1.167e+04 1.151e-08
 76.99247     27.8 1.158e+04 1.055e-08
 77.03245     28.7 1.160e+04 1.067e-08
 77.07243     29.9 1.172e+04 1.072e-08
 77.11240     31.3 1.167e+04 9.793e-09
 77.14214     33.1 1.145e+04 7.074e-09
 77.16213     33.5 1.157e+04 8.680e-09
 77.19236     35.4 1.138e+04 5.875e-09
 77.23233     37.3 1.123e+04 3.635e-09
 77.27231     39.1 1.121e+04 2.523e-09
 77.31229     41.1 1.117e+04 2.087e-09
 77.33402     43.4 1.111e+04 1.780e-09
 77.35401     44.1 1.114e+04 1.972e-09
 77.39224     46.3 1.121e+04 1.564e-09
 77.43222     48.2 1.143e+04 1.182e-09
 77.47220     49.8 1.158e+04 9.853e-10
 77.50592     51.4 1.158e+04 9.827e-10
 77.52591     51.8 1.157e+04 1.330e-09
 77.55215     53.0 1.155e+04 1.412e-09
 77.59213     54.4 1.147e+04 1.815e-09
 77.63210     56.1 1.142e+04 2.350e-09
 77.67208     58.3 1.145e+04 2.941e-09
 77.69780     60.6 1.157e+04 3.405e-09
 77.71779     60.9 1.168e+04 3.360e-09
 77.75203     63.3 1.176e+04 3.782e-09
 77.79201     65.8 1.179e+04 4.212e-09
 77.83199     68.4 1.185e+04 4.552e-09
 77.86970     70.8 1.193e+04 4.793e-09
 77.88969     70.8 1.199e+04 4.407e-09
 77.91194     73.1 1.204e+04 4.624e-09
 77.95192     75.2 1.213e+04 4.724e-09
 77.99190     77.1 1.217e+04 4.713e-09
 78.03187     79.0 1.217e+04 4.565e-09
 78.06159     81.0 1.210e+04 4.226e-09
 78.08157     81.1 1.191e+04 3.809e-09
 78.11183     83.3 1.182e+04 3.907e-09
 78.15180     85.7 1.176e+04 4.089e-09
 78.19178     88.1 1.180e+04 4.284e-09
 78.23176     90.2 1.187e+04 4.418e-09
 78.25347     92.3 1.191e+04 4.387e-09
 78.27346     92.3 1.196e+04 3.952e-09
 78.31171     94.0 1.193e+04 3.802e-09
 78.35169     95.9 1.186e+04 3.496e-09
 78.38157     96.6 1.187e+04 3.372e-09
 78.40146     97.2 1.180e+04 3.391e-09
 78.42145     97.8 1.175e+04 3.457e-09
 78.43516     98.5 1.169e+04 3.628e-09
 78.44516     98.7 1.174e+04 3.307e-09
 78.46143     99.2 1.175e+04 3.708e-09
 78.48142     99.8 1.177e+04 4.208e-09
 78.50141    100.3 1.181e+04 4.766e-09
 78.52111    100.9 1.188e+04 5.276e-09
 78.53111    101.1 1.198e+04 5.367e-09
 78.54138    101.6 1.206e+04 5.652e-09
 78.56137    102.0 1.207e+04 5.625e-09
 78.58136    102.3 1.205e+04 5.305e-09
 78.60135    102.5 1.196e+04 4.883e-09
 78.61715    103.5 1.176e+04 4.209e-09
 78.63724    103.8 1.187e+04 3.980e-09
 78.67150    104.7 1.163e+04 2.494e-09
 78.70758    105.5 1.144e+04 1.354e-09
 78.72757    104.6 1.142e+04 9.581e-10
 78.75146    105.4 1.115e+04 7.302e-10
 78.78915    106.7 1.108e+04 7.306e-10
 78.80913    107.1 1.120e+04 9.546e-10
 78.83141    108.4 1.121e+04 1.002e-09
 78.87139    109.5 1.123e+04 1.220e-09
 78.91136    110.4 1.126e+04 1.696e-09
 78.95134    111.1 1.133e+04 2.430e-09
 78.98103    111.7 1.147e+04 3.309e-09
 79.00102    111.4 1.171e+04 3.962e-09
 79.03129    111.8 1.175e+04 3.905e-09
 79.07127    112.1 1.184e+04 3.511e-09
 79.11125    112.3 1.193e+04 2.882e-09
 79.15123    112.5 1.197e+04 2.240e-09
 79.17292    112.9 1.188e+04 1.942e-09
 79.19290    113.3 1.188e+04 1.886e-09
 79.23118    114.1 1.187e+04 2.023e-09
 79.27116    114.7 1.194e+04 2.587e-09
 79.31113    114.9 1.211e+04 3.820e-09
 79.34481    114.8 1.229e+04 5.639e-09
 79.36480    115.2 1.245e+04 6.634e-09
 79.39109    114.9 1.276e+04 8.049e-09
 79.43106    114.1 1.293e+04 8.140e-09
 79.47104    113.4 1.301e+04 7.623e-09
 79.51102    112.8 1.305e+04 6.858e-09
 79.53670    112.7 1.304e+04 6.743e-09
 79.55668    112.6 1.314e+04 5.548e-09
 79.59097    112.1 1.323e+04 6.186e-09
 79.63095    111.4 1.341e+04 7.638e-09
 79.67093    109.7 1.373e+04 1.070e-08
 79.70081    107.9 1.408e+04 1.447e-08
 79.71839    106.4 1.429e+04 1.816e-08
 79.72848    105.7 1.428e+04 1.482e-08
 79.75088    102.0 1.453e+04 1.539e-08
 79.79086     98.5 1.441e+04 1.357e-08
 79.83083     96.9 1.397e+04 9.145e-09
 79.87081     96.9 1.367e+04 5.272e-09
 79.90048     97.1 1.362e+04 2.890e-09
 79.92046     97.3 1.362e+04 3.849e-09
 79.95076     98.3 1.360e+04 2.707e-09
 79.99074     99.6 1.358e+04 2.094e-09
 80.03072    101.2 1.345e+04 1.967e-09
 80.07069    103.1 1.343e+04 2.002e-09
 80.09236    105.1 1.341e+04 2.116e-09
 80.11235    105.3 1.346e+04 2.739e-09
 80.15065    107.3 1.346e+04 2.758e-09
 80.19063    109.2 1.352e+04 2.838e-09
 80.23060    111.1 1.360e+04 3.103e-09
 80.26426    112.8 1.370e+04 3.488e-09
 80.28425    112.7 1.364e+04 2.681e-09
 80.31056    114.4 1.365e+04 2.886e-09
 80.35053    116.1 1.374e+04 3.214e-09
 80.38042    116.9 1.381e+04 3.288e-09
 80.40031    117.5 1.380e+04 3.223e-09
 80.42030    118.0 1.378e+04 3.063e-09
 80.44029    118.4 1.376e+04 2.837e-09
 80.45595    118.6 1.375e+04 2.598e-09
 80.47603    118.6 1.355e+04 2.073e-09
 80.51044    119.0 1.351e+04 2.206e-09
 80.55042    119.4 1.347e+04 2.517e-09
 80.59039    119.6 1.346e+04 2.995e-09
 80.62804    119.6 1.344e+04 3.595e-09
 80.64803    119.9 1.346e+04 4.041e-09
 80.67035    120.2 1.344e+04 4.388e-09
 80.71033    120.4 1.349e+04 4.901e-09
 80.75030    120.5 1.363e+04 5.697e-09
 80.79028    120.4 1.388e+04 7.301e-09
 80.81992    120.0 1.402e+04 9.287e-09
 80.83991    121.0 1.417e+04 1.074e-08
 80.87023    120.4 1.444e+04 1.303e-08
 80.90012    119.9 1.439e+04 1.290e-08
 80.91567    119.6 1.436e+04 1.264e-08
 80.92566    120.0 1.451e+04 1.401e-08
 80.94000    119.7 1.448e+04 1.392e-08
 80.95999    119.4 1.441e+04 1.349e-08
 80.97997    119.0 1.428e+04 1.236e-08
 80.99996    118.9 1.414e+04 1.063e-08
 81.01161    119.0 1.404e+04 8.702e-09
 81.02161    119.5 1.427e+04 1.022e-08
 81.03994    119.6 1.417e+04 8.099e-09
 81.05993    119.9 1.412e+04 6.357e-09
 81.07992    120.2 1.410e+04 5.034e-09
 81.09756    120.7 1.405e+04 4.188e-09
 81.10755    121.2 1.416e+04 4.696e-09
 81.11989    121.8 1.406e+04 4.105e-09
 81.13988    122.5 1.395e+04 4.033e-09
 81.15987    123.2 1.393e+04 4.071e-09
 81.17986    123.8 1.394e+04 4.217e-09
 81.19350    124.5 1.399e+04 4.479e-09
 81.20350    125.1 1.404e+04 4.349e-09
 81.21984    125.4 1.411e+04 4.480e-09
 81.23982    125.5 1.412e+04 4.479e-09
 81.25981    125.8 1.417e+04 4.411e-09
 81.27945    126.1 1.420e+04 4.338e-09
 81.28944    126.7 1.427e+04 4.445e-09
 81.30988    126.9 1.431e+04 3.875e-09
 81.34996    127.6 1.432e+04 3.309e-09
 81.37559    128.0 1.442e+04 2.874e-09
 81.39558    129.2 1.457e+04 3.372e-09
 81.42991    129.6 1.458e+04 3.052e-09
 81.46989    129.6 1.464e+04 2.874e-09
 81.50986    129.4 1.472e+04 2.763e-09
 81.54748    129.2 1.475e+04 2.578e-09
 81.56747    130.7 1.460e+04 2.853e-09
 81.58982    130.7 1.453e+04 2.700e-09
 81.62979    130.9 1.442e+04 2.504e-09
 81.66977    131.3 1.410e+04 2.481e-09
 81.70975    132.0 1.402e+04 2.550e-09
 81.73937    132.8 1.393e+04 2.816e-09
 81.75936    133.4 1.379e+04 3.556e-09
 81.78970    134.0 1.372e+04 4.025e-09
 81.82968    134.6 1.365e+04 4.629e-09
 81.86966    135.3 1.374e+04 5.107e-09
 81.90963    135.9 1.392e+04 5.238e-09
 81.93125    136.4 1.393e+04 5.107e-09
 81.95124    137.2 1.366e+04 4.900e-09
 81.98959    138.1 1.372e+04 4.442e-09
 82.02956    139.2 1.377e+04 3.535e-09
 82.06954    140.4 1.385e+04 2.597e-09
 82.10315    141.7 1.398e+04 1.933e-09
 82.12314    142.6 1.384e+04 2.045e-09
 82.14949    143.9 1.395e+04 1.631e-09
 82.18947    145.3 1.393e+04 1.575e-09
 82.22945    146.9 1.394e+04 1.590e-09
 82.26942    148.5 1.400e+04 1.664e-09
 82.29503    150.1 1.411e+04 1.884e-09
 82.31502    151.1 1.399e+04 2.056e-09
 82.34938    152.5 1.407e+04 2.591e-09
 82.38936    153.8 1.407e+04 3.235e-09
 82.42933    155.5 1.409e+04 4.066e-09
 82.46693    157.1 1.413e+04 5.166e-09
 82.48692    157.8 1.402e+04 6.216e-09
 82.50929    159.1 1.411e+04 7.614e-09
 82.54926    160.2 1.420e+04 8.428e-09
 82.58924    161.0 1.423e+04 8.486e-09
 82.62922    161.5 1.422e+04 8.286e-09
 82.65881    162.2 1.413e+04 7.540e-09
 82.67315    162.0 1.392e+04 5.862e-09
 82.68353    162.6 1.384e+04 5.395e-09
 82.70917    163.3 1.382e+04 4.269e-09
 82.74915    164.3 1.379e+04 3.393e-09
 82.78912    165.7 1.378e+04 2.888e-09
 82.82910    167.4 1.383e+04 2.710e-09
 82.85070    169.5 1.389e+04 2.740e-09
 82.87069    170.4 1.371e+04 2.338e-09
 82.90906    172.7 1.386e+04 2.853e-09
 82.94903    174.4 1.390e+04 3.431e-09
 82.97892    175.5 1.383e+04 4.010e-09
 82.99881    176.9 1.374e+04 4.745e-09
 83.01880    178.2 1.365e+04 5.466e-09
 83.03239    179.2 1.365e+04 5.738e-09
 83.04239    179.4 1.360e+04 5.698e-09
 83.05877    180.3 1.361e+04 5.733e-09
 83.07876    181.1 1.358e+04 5.717e-09
 83.09875    181.8 1.351e+04 5.553e-09
 83.11834    182.6 1.345e+04 5.273e-09
 83.12834    182.9 1.344e+04 5.221e-09
 83.14882    184.1 1.334e+04 4.157e-09
 83.18889    185.8 1.329e+04 3.426e-09
 83.21448    187.3 1.325e+04 2.877e-09
 83.23447    187.8 1.299e+04 2.757e-09
 83.26885    189.2 1.289e+04 2.485e-09
 83.30882    190.4 1.282e+04 2.351e-09
 83.34880    191.5 1.285e+04 2.356e-09
 83.38637    192.6 1.295e+04 2.397e-09
 83.40636    194.0 1.289e+04 2.407e-09
 83.42876    195.0 1.313e+04 2.652e-09
 83.46873    195.4 1.328e+04 3.165e-09
 83.49221    195.6 1.343e+04 3.696e-09
 83.50211    196.1 1.337e+04 3.698e-09
 83.51851    196.4 1.340e+04 4.101e-09
 83.53850    196.8 1.344e+04 4.476e-09
 83.55849    197.1 1.349e+04 4.796e-09
 83.57806    197.3 1.359e+04 5.055e-09
 83.58806    197.7 1.348e+04 4.994e-09
 83.59846    197.9 1.358e+04 5.130e-09
 83.61845    197.9 1.371e+04 5.247e-09
 83.63844    197.8 1.386e+04 5.360e-09
 83.65843    197.6 1.400e+04 5.486e-09
 83.67401    197.3 1.417e+04 5.700e-09
 83.68400    197.9 1.397e+04 5.341e-09
 83.69840    197.6 1.417e+04 5.620e-09
 83.71839    197.1 1.436e+04 6.083e-09
 83.73838    196.5 1.454e+04 6.613e-09
 83.75837    195.7 1.473e+04 6.949e-09
 83.76995    194.8 1.499e+04 6.901e-09
 83.77994    195.6 1.475e+04 6.606e-09
 83.79835    194.7 1.501e+04 6.510e-09
 83.81834    193.7 1.512e+04 6.374e-09
 83.83832    192.7 1.533e+04 6.008e-09
 83.85590    191.6 1.537e+04 5.724e-09
 83.86589    192.5 1.534e+04 5.788e-09
 83.87830    191.4 1.533e+04 5.760e-09
 83.89829    190.1 1.530e+04 5.861e-09
 83.91828    188.7 1.523e+04 6.394e-09
 83.93827    187.0 1.516e+04 7.698e-09
 83.95184    185.2 1.511e+04 9.534e-09
 83.96183    186.3 1.513e+04 8.601e-09
 83.97824    184.7 1.501e+04 9.668e-09
 83.99823    183.1 1.493e+04 9.837e-09
 84.01822    181.8 1.481e+04 9.645e-09
 84.03779    180.8 1.458e+04 8.811e-09
 84.04778    182.1 1.472e+04 8.957e-09
 84.05820    181.4 1.452e+04 8.322e-09
 84.07818    180.9 1.435e+04 7.416e-09
 84.09817    180.6 1.424e+04 6.414e-09
 84.11816    180.4 1.415e+04 5.445e-09
 84.13373    180.4 1.408e+04 4.608e-09
 84.14372    181.4 1.419e+04 6.390e-09
 84.15814    181.5 1.412e+04 5.536e-09
 84.17813    181.5 1.404e+04 4.842e-09
 84.19812    181.6 1.392e+04 4.411e-09
 84.21810    181.6 1.378e+04 4.229e-09
 84.22967    181.6 1.375e+04 4.294e-09
 84.23967    182.0 1.389e+04 5.562e-09
 84.25808    181.9 1.379e+04 5.618e-09
 84.27807    181.7 1.376e+04 5.802e-09
 84.29806    181.6 1.375e+04 6.083e-09
 84.31562    181.5 1.375e+04 6.211e-09
 84.32561    181.6 1.380e+04 7.143e-09
 84.33803    181.3 1.379e+04 6.774e-09
 84.35802    181.0 1.372e+04 6.293e-09
 84.37801    180.8 1.356e+04 5.318e-09
 84.39800    180.5 1.349e+04 4.778e-09
 84.42808    180.8 1.333e+04 3.820e-09
 84.46816    181.3 1.306e+04 2.903e-09
 84.49771    182.3 1.280e+04 2.274e-09
 84.51769    181.5 1.287e+04 2.307e-09
 84.54811    182.9 1.265e+04 1.942e-09
 84.58809    184.3 1.249e+04 1.779e-09
 84.62806    185.7 1.243e+04 1.681e-09
 84.66804    187.1 1.242e+04 1.553e-09
 84.68959    188.6 1.241e+04 1.360e-09
 84.70958    188.8 1.226e+04 1.442e-09
 84.74799    190.4 1.223e+04 1.285e-09
 84.78797    192.1 1.219e+04 1.198e-09
 84.82795    193.9 1.218e+04 1.196e-09
 84.86149    195.6 1.217e+04 1.241e-09
 84.88147    195.4 1.213e+04 1.659e-09
 84.90790    196.9 1.213e+04 1.751e-09
 84.94788    198.4 1.214e+04 1.825e-09
 84.98786    199.9 1.213e+04 1.873e-09
 85.02783    201.4 1.211e+04 1.913e-09
 85.05337    202.9 1.211e+04 1.991e-09
 85.07336    202.4 1.219e+04 2.250e-09
 85.09769    203.5 1.213e+04 2.231e-09
 85.11758    204.2 1.212e+04 2.243e-09
 85.13757    205.1 1.210e+04 2.318e-09
 85.14912    206.1 1.212e+04 2.455e-09
 85.15911    206.4 1.226e+04 2.730e-09
 85.17755    207.2 1.230e+04 2.984e-09
 85.19754    207.8 1.230e+04 3.282e-09
 85.21753    208.2 1.230e+04 3.614e-09
 85.23507    208.8 1.231e+04 3.943e-09
 85.24506    208.4 1.234e+04 3.923e-09
 85.25750    209.0 1.238e+04 4.178e-09
 85.27749    209.5 1.246e+04 4.480e-09
 85.29748    210.0 1.255e+04 4.848e-09
 85.31747    210.5 1.262e+04 5.299e-09
 85.33101    211.0 1.266e+04 5.873e-09
 85.34100    210.9 1.271e+04 6.020e-09
 85.35745    211.5 1.281e+04 6.986e-09
 85.37743    211.9 1.294e+04 8.371e-09
 85.39742    212.0 1.305e+04 1.040e-08
 85.41696    212.0 1.317e+04 1.343e-08
 85.42695    212.0 1.357e+04 1.622e-08
 85.43740    211.7 1.403e+04 2.341e-08
 85.45739    210.9 1.466e+04 3.455e-08
 85.47738    209.7 1.529e+04 4.782e-08
 85.49737    207.8 1.578e+04 5.632e-08
 85.51290    205.6 1.587e+04 5.703e-08
 85.52289    203.4 1.703e+04 8.168e-08
 85.53734    201.3 1.679e+04 7.422e-08
 85.55733    200.5 1.638e+04 6.501e-08
 85.57732    200.0 1.614e+04 6.105e-08
 85.59731    199.5 1.619e+04 6.298e-08
 85.60884    199.0 1.638e+04 6.792e-08
 85.61883    196.8 1.577e+04 4.106e-08
 85.63728    196.5 1.581e+04 3.856e-08
 85.65727    195.9 1.579e+04 3.594e-08
 85.67726    195.0 1.566e+04 3.355e-08
 85.69479    193.8 1.539e+04 3.207e-08
 85.70478    191.4 1.369e+04 2.254e-08
 85.71724    190.5 1.378e+04 2.438e-08
 85.73723    189.7 1.375e+04 2.484e-08
 85.75722    189.2 1.370e+04 2.459e-08
 85.77720    189.1 1.359e+04 2.323e-08
 85.79073    189.0 1.342e+04 2.065e-08
 85.80072    187.6 1.299e+04 1.539e-08
 85.81718    187.5 1.266e+04 1.315e-08
 85.83717    187.6 1.239e+04 1.241e-08
 85.85716    187.9 1.236e+04 1.244e-08
 85.87668    188.5 1.243e+04 1.296e-08
 85.88667    186.7 1.247e+04 1.398e-08
 85.89713    186.8 1.275e+04 1.624e-08
 85.91712    186.8 1.315e+04 2.008e-08
 85.93711    186.6 1.362e+04 2.538e-08
 85.95710    186.3 1.403e+04 3.129e-08
 85.97262    185.9 1.426e+04 3.535e-08
 85.98261    182.7 1.429e+04 3.891e-08
 85.99708    182.0 1.407e+04 3.595e-08
 86.01707    181.4 1.363e+04 3.103e-08
 86.03705    180.7 1.309e+04 2.583e-08
 86.05704    179.9 1.256e+04 2.160e-08
 86.06856    179.0 1.216e+04 1.880e-08
 86.07856    176.2 1.191e+04 1.699e-08
 86.09702    175.6 1.163e+04 1.562e-08
 86.11701    175.0 1.139e+04 1.457e-08
 86.13700    174.4 1.118e+04 1.367e-08
 86.15451    174.0 1.102e+04 1.295e-08
 86.16451    171.1 1.072e+04 1.207e-08
 86.17697    170.7 1.062e+04 1.174e-08
 86.19696    170.5 1.054e+04 1.149e-08
 86.21695    170.3 1.048e+04 1.131e-08
 86.23694    170.3 1.046e+04 1.129e-08
 86.25045    170.3 1.046e+04 1.128e-08
 86.26045    168.3 1.036e+04 1.139e-08
 86.27692    168.5 1.039e+04 1.174e-08
 86.29690    168.8 1.042e+04 1.206e-08
 86.31689    169.2 1.044e+04 1.229e-08
 86.33640    169.7 1.048e+04 1.224e-08
 86.34640    168.0 1.052e+04 1.244e-08
 86.35687    168.7 1.063e+04 1.265e-08
 86.37686    169.3 1.076e+04 1.294e-08
 86.39685    170.0 1.097e+04 1.331e-08
 86.41683    170.5 1.126e+04 1.401e-08
 86.43234    170.8 1.168e+04 1.527e-08
 86.44234    168.2 1.172e+04 1.689e-08
 86.45681    168.6 1.209e+04 1.882e-08
 86.47680    169.1 1.236e+04 1.995e-08
 86.49679    169.6 1.242e+04 2.010e-08
 86.51678    170.1 1.236e+04 1.955e-08
 86.52829    170.7 1.225e+04 1.712e-08
 86.54837    165.9 1.190e+04 4.903e-09
 86.58693    166.2 1.126e+04 2.282e-09
 86.61949    167.1 9.562e+03 1.763e-09
 86.63948    166.4 1.027e+04 2.034e-09
 86.66689    168.5 9.431e+03 2.050e-09
 86.70038    171.9 9.439e+03 2.103e-09
 86.72037    170.2 9.481e+03 2.628e-09
 86.74684    173.4 9.667e+03 2.772e-09
 86.77672    174.6 9.645e+03 2.829e-09
 86.79612    175.8 9.577e+03 2.830e-09
 86.80612    175.3 9.780e+03 2.964e-09
 86.81660    176.4 9.849e+03 3.078e-09
 86.83659    177.4 9.976e+03 3.303e-09
 86.85658    178.2 1.014e+04 3.716e-09
 86.87657    178.8 1.031e+04 4.371e-09
 86.89207    179.3 1.047e+04 5.315e-09
 86.90206    177.4 1.083e+04 8.546e-09
 86.91655    178.1 1.100e+04 1.017e-08
 86.93653    178.8 1.117e+04 1.167e-08
 86.95652    179.4 1.135e+04 1.197e-08
 86.97651    179.8 1.135e+04 1.177e-08
 86.98801    180.1 1.132e+04 1.116e-08
 86.99800    178.2 1.145e+04 9.807e-09
 87.01649    178.4 1.131e+04 7.727e-09
 87.03648    178.5 1.114e+04 5.952e-09
 87.05647    178.4 1.097e+04 4.656e-09
 87.07396    178.4 1.073e+04 3.888e-09
 87.08395    176.4 1.049e+04 3.485e-09
 87.09644    176.7 1.032e+04 3.476e-09
 87.11643    177.1 1.032e+04 3.479e-09
 87.13642    177.5 1.035e+04 3.541e-09
 87.15641    177.8 1.042e+04 3.783e-09
 87.16990    178.1 1.050e+04 4.227e-09
 87.17989    177.1 1.059e+04 4.375e-09
 87.19638    177.4 1.066e+04 4.888e-09
 87.21637    177.7 1.077e+04 5.412e-09
 87.23636    177.9 1.090e+04 5.775e-09
 87.25585    177.7 1.103e+04 5.910e-09
 87.26584    176.8 1.093e+04 5.419e-09
 87.27634    176.6 1.107e+04 5.655e-09
 87.29633    176.1 1.123e+04 5.902e-09
 87.31632    175.3 1.149e+04 6.552e-09
 87.33630    174.3 1.179e+04 8.015e-09
 87.35179    173.0 1.213e+04 1.053e-08
 87.36178    172.1 1.254e+04 1.667e-08
 87.37628    170.9 1.305e+04 2.229e-08
 87.39627    169.5 1.346e+04 2.696e-08
 87.41626    167.8 1.382e+04 2.840e-08
 87.43625    165.9 1.385e+04 2.804e-08
 87.44773    163.8 1.386e+04 2.643e-08
 87.45773    162.8 1.401e+04 2.752e-08
 87.47622    160.7 1.374e+04 2.358e-08
 87.49621    158.8 1.341e+04 2.031e-08
 87.51620    157.2 1.320e+04 1.952e-08
 87.53368    155.8 1.322e+04 1.974e-08
 87.54367    154.6 1.346e+04 1.653e-08
 87.55618    153.0 1.377e+04 1.802e-08
 87.57616    151.7 1.409e+04 2.117e-08
 87.59615    150.6 1.430e+04 2.461e-08
 87.61614    149.7 1.432e+04 2.519e-08
 87.62962    148.8 1.428e+04 2.467e-08
 87.63962    146.7 1.391e+04 1.641e-08
 87.65612    145.7 1.371e+04 1.567e-08
 87.67611    144.6 1.368e+04 1.585e-08
 87.69610    143.3 1.378e+04 1.716e-08
 87.71557    141.7 1.405e+04 1.944e-08
 87.72556    140.2 1.422e+04 2.170e-08
 87.73607    138.4 1.463e+04 2.825e-08
 87.75606    136.3 1.492e+04 3.503e-08
 87.77605    133.9 1.508e+04 3.957e-08
 87.79604    131.3 1.506e+04 3.920e-08
 87.81151    128.6 1.490e+04 3.621e-08
 87.82151    127.8 1.463e+04 3.071e-08
 87.83601    125.3 1.422e+04 2.449e-08
 87.85600    122.9 1.388e+04 1.952e-08
 87.87599    120.7 1.365e+04 1.622e-08
 87.89598    118.8 1.348e+04 1.407e-08
 87.90745    117.2 1.332e+04 1.241e-08
 87.91745    117.5 1.328e+04 1.262e-08
 87.93596    116.6 1.313e+04 1.134e-08
 87.95595    115.8 1.300e+04 9.909e-09
 87.97593    115.1 1.297e+04 8.762e-09
 87.99340    114.4 1.298e+04 8.266e-09
 88.00340    114.2 1.326e+04 1.053e-08
 88.01591    113.7 1.333e+04 1.159e-08
 88.03590    113.2 1.346e+04 1.351e-08
 88.05589    112.8 1.368e+04 1.702e-08
 88.07588    112.5 1.404e+04 2.350e-08
 88.08934    112.3 1.454e+04 3.374e-08
 88.09934    112.0 1.467e+04 3.580e-08
 88.11585    111.7 1.514e+04 4.782e-08
 88.13584    111.0 1.529e+04 5.184e-08
 88.15583    110.2 1.516e+04 4.961e-08
 88.17529    110.2 1.466e+04 4.032e-08
 88.18529    110.3 1.452e+04 3.795e-08
 88.19581    110.3 1.401e+04 2.796e-08
 88.21580    110.2 1.341e+04 1.891e-08
 88.23578    109.8 1.281e+04 1.373e-08
 88.25577    109.5 1.251e+04 1.278e-08
 88.27123    109.5 1.250e+04 1.287e-08
 88.28123    109.6 1.290e+04 1.539e-08
 88.29575    109.4 1.303e+04 1.717e-08
 88.31574    109.1 1.338e+04 2.050e-08
 88.33573    108.7 1.380e+04 2.413e-08
 88.35571    108.1 1.399e+04 2.527e-08
 88.36718    107.4 1.393e+04 2.474e-08
 88.37717    106.5 1.423e+04 2.718e-08
 88.39569    106.2 1.395e+04 2.398e-08
 88.41568    106.1 1.361e+04 2.009e-08
 88.43567    106.0 1.325e+04 1.611e-08
 88.45313    106.0 1.289e+04 1.279e-08
 88.46312    104.6 1.296e+04 1.516e-08
 88.47565    104.8 1.255e+04 1.199e-08
 88.49563    105.1 1.215e+04 9.137e-09
 88.51562    105.5 1.180e+04 7.182e-09
 88.53561    106.1 1.148e+04 5.448e-09
 88.54907    106.6 1.125e+04 4.029e-09
 88.55906    105.4 1.107e+04 2.423e-09
 88.58568    105.7 1.078e+04 1.642e-09
 88.62575    106.7 1.045e+04 1.293e-09
 88.66573    108.0 1.012e+04 1.267e-09
 88.70571    109.4 1.005e+04 1.302e-09
 88.73115    110.8 9.990e+03 1.435e-09
 88.75114    110.3 9.869e+03 1.321e-09
 88.78566    111.5 9.971e+03 1.721e-09
 88.82564    112.5 1.012e+04 2.195e-09
 88.86562    113.3 1.029e+04 2.585e-09
 88.90305    114.1 1.044e+04 2.863e-09
 88.92304    113.0 1.036e+04 2.588e-09
 88.94557    113.4 1.047e+04 2.710e-09
 88.97545    113.4 1.049e+04 2.938e-09
 88.99535    113.5 1.048e+04 3.380e-09
 89.00879    113.6 1.047e+04 4.179e-09
 89.01878    113.2 1.037e+04 3.513e-09
 89.03532    113.5 1.037e+04 4.044e-09
 89.05531    114.0 1.043e+04 4.790e-09
 89.07530    114.5 1.055e+04 5.456e-09
 89.09474    114.9 1.067e+04 6.038e-09
 89.10473    114.3 1.045e+04 4.804e-09
 89.11528    114.9 1.061e+04 5.388e-09
 89.13526    115.3 1.080e+04 5.893e-09
 89.15525    115.2 1.104e+04 6.609e-09
 89.17524    114.7 1.145e+04 8.236e-09
 89.19068    113.8 1.223e+04 1.249e-08
 89.20067    113.2 1.218e+04 1.180e-08
 89.21522    112.1 1.315e+04 2.151e-08
 89.23521    111.1 1.406e+04 3.670e-08
 89.25520    110.3 1.467e+04 4.765e-08
 89.27518    109.1 1.474e+04 4.628e-08
 89.28662    107.9 1.463e+04 3.635e-08
 89.29662    108.1 1.404e+04 2.581e-08
 89.31516    106.4 1.373e+04 1.378e-08
 89.33515    104.0 1.317e+04 6.225e-09
 89.35514    101.3 1.219e+04 3.702e-09
 89.37257    100.2 1.172e+04 3.523e-09
 89.38257    101.0 1.164e+04 3.434e-09
 89.39511    101.1 1.164e+04 3.433e-09
 89.41510    101.3 1.169e+04 3.462e-09
 89.43509    101.5 1.180e+04 3.573e-09
 89.45508    101.9 1.190e+04 3.733e-09
 89.46851    102.3 1.199e+04 3.872e-09
 89.47851    102.9 1.189e+04 3.665e-09
 89.49506    103.4 1.197e+04 3.797e-09
 89.51505    103.9 1.206e+04 3.936e-09
 89.53503    104.3 1.214e+04 4.099e-09
 89.55446    104.8 1.217e+04 4.269e-09
 89.56446    105.4 1.217e+04 4.215e-09
 89.57501    105.9 1.219e+04 4.542e-09
 89.59500    106.4 1.223e+04 4.894e-09
 89.61499    106.9 1.228e+04 5.328e-09
 89.63498    107.3 1.232e+04 5.849e-09
 89.65040    107.5 1.239e+04 6.459e-09
 89.66040    108.1 1.245e+04 6.361e-09
 89.67495    108.2 1.250e+04 7.061e-09
 89.69494    108.2 1.259e+04 7.944e-09
 89.71493    108.1 1.268e+04 8.904e-09
 89.73492    107.7 1.275e+04 9.622e-09
 89.74635    107.3 1.277e+04 9.687e-09
 89.75634    107.8 1.285e+04 9.847e-09
 89.77490    107.3 1.282e+04 9.742e-09
 89.79488    107.0 1.276e+04 9.529e-09
 89.82240    106.4 1.250e+04 8.472e-09
 89.84248    107.6 1.276e+04 9.530e-09
 89.86504    107.7 1.253e+04 8.277e-09
 89.89492    107.4 1.234e+04 7.388e-09
 89.91481    107.5 1.217e+04 6.639e-09
 89.92824    107.7 1.202e+04 5.935e-09
 89.93823    108.0 1.207e+04 5.874e-09
 89.95479    108.4 1.190e+04 5.242e-09
 89.97478    108.9 1.176e+04 4.878e-09
 89.99477    109.5 1.175e+04 4.862e-09
 90.01418    110.1 1.174e+04 4.986e-09
 90.02418    110.3 1.181e+04 5.312e-09
 90.03475    110.9 1.181e+04 5.508e-09
 90.05473    111.3 1.180e+04 5.491e-09
 90.07472    111.7 1.175e+04 5.375e-09
 90.09471    112.1 1.167e+04 5.027e-09
 90.11013    112.4 1.157e+04 4.499e-09
 90.12012    112.4 1.157e+04 4.004e-09
 90.13469    112.7 1.150e+04 3.474e-09
 90.15468    112.9 1.147e+04 3.138e-09
 90.17466    113.2 1.139e+04 2.938e-09
 90.19465    113.4 1.132e+04 2.839e-09
 90.20617    114.2 1.135e+04 3.129e-09
 90.21616    114.2 1.118e+04 2.609e-09
 90.23463    114.8 1.107e+04 2.514e-09
 90.26471    115.4 1.102e+04 2.789e-09
 90.30478    116.8 1.088e+04 2.787e-09
 90.34476    117.9 1.085e+04 2.853e-09
 90.37816    118.7 1.082e+04 3.134e-09
 90.39815    119.3 1.081e+04 3.120e-09
 90.42472    120.0 1.080e+04 3.595e-09
 90.46469    120.7 1.079e+04 4.096e-09
 90.50467    121.3 1.077e+04 4.348e-09
 90.54465    121.9 1.078e+04 4.334e-09
 90.57004    122.5 1.074e+04 3.994e-09
 90.58085    123.3 1.085e+04 4.515e-09
 90.59543    124.6 1.076e+04 3.822e-09
 90.62460    125.5 1.069e+04 3.626e-09
 90.66458    126.5 1.059e+04 3.075e-09
 90.70455    127.8 1.048e+04 2.424e-09
 90.74194    129.3 1.038e+04 1.850e-09
 90.76193    130.2 1.045e+04 2.047e-09
 90.78451    132.0 1.039e+04 1.586e-09
 90.82448    133.8 1.036e+04 1.293e-09
 90.86446    135.9 1.028e+04 1.186e-09
 90.90444    138.0 1.024e+04 1.185e-09
 90.93383    140.3 1.024e+04 1.188e-09
 90.95381    141.3 1.033e+04 1.256e-09
 90.98439    143.5 1.033e+04 1.277e-09
 91.02437    145.7 1.034e+04 1.374e-09
 91.06435    147.8 1.044e+04 1.621e-09
 91.10432    149.9 1.059e+04 2.036e-09
 91.12571    151.8 1.076e+04 2.617e-09
 91.14570    153.0 1.077e+04 2.881e-09
 91.18428    154.8 1.097e+04 3.719e-09
 91.22425    156.5 1.123e+04 4.579e-09
 91.26423    157.8 1.156e+04 4.963e-09
 91.29761    158.7 1.164e+04 4.929e-09
 91.31759    160.0 1.172e+04 5.322e-09
 91.34418    160.7 1.178e+04 5.061e-09
 91.38416    161.2 1.187e+04 4.141e-09
 91.42414    161.7 1.191e+04 2.862e-09
 91.46412    161.9 1.195e+04 1.894e-09
 91.48949    162.1 1.194e+04 1.704e-09
 91.50948    163.2 1.206e+04 2.813e-09
 91.54407    163.1 1.203e+04 2.866e-09
 91.58405    162.7 1.194e+04 3.177e-09
 91.62402    162.1 1.187e+04 3.749e-09
 91.66139    161.1 1.168e+04 4.118e-09
 91.68137    160.7 1.182e+04 4.285e-09
 91.70398    159.1 1.154e+04 3.343e-09
 91.74395    157.5 1.126e+04 2.437e-09
 91.78393    156.2 1.101e+04 1.740e-09
 91.82391    155.5 1.084e+04 1.272e-09
 91.85327    155.5 1.076e+04 9.724e-10
 91.87326    155.7 1.066e+04 8.293e-10
 91.90386    156.1 1.059e+04 7.342e-10
 91.94384    156.9 1.049e+04 6.594e-10
 91.98382    158.0 1.031e+04 6.370e-10
 92.02379    159.4 1.027e+04 6.408e-10
 92.04516    160.9 1.021e+04 6.659e-10
 92.06514    161.6 1.022e+04 6.666e-10
 92.10375    163.0 1.016e+04 7.428e-10
 92.14372    164.3 1.011e+04 8.801e-10
 92.18370    165.5 1.009e+04 1.092e-09
 92.21705    166.7 1.007e+04 1.391e-09
 92.23704    167.1 1.006e+04 1.562e-09
 92.26365    168.3 1.004e+04 1.891e-09
 92.30363    169.4 9.959e+03 2.051e-09
 92.34361    170.6 9.920e+03 2.039e-09
 92.38358    172.1 9.802e+03 1.982e-09
 92.40894    173.8 9.748e+03 1.971e-09
 92.42892    173.9 9.618e+03 1.782e-09
 92.46354    175.8 9.609e+03 1.803e-09
 92.50351    177.6 9.607e+03 1.944e-09
 92.54349    179.2 9.621e+03 2.266e-09
 92.58083    180.6 9.610e+03 2.693e-09
 92.60082    181.4 9.572e+03 2.551e-09
 92.62345    182.8 9.559e+03 3.029e-09
 92.66342    184.2 9.487e+03 3.229e-09
 92.70340    185.7 9.455e+03 3.213e-09
 92.74338    187.3 9.340e+03 3.074e-09
 92.77272    189.2 9.190e+03 2.807e-09
 92.79270    190.3 9.378e+03 3.092e-09
 92.82333    192.3 9.246e+03 2.804e-09
 92.86331    194.4 9.087e+03 2.619e-09
 92.90328    196.3 9.019e+03 2.586e-09
 92.94326    198.3 9.019e+03 2.583e-09
 92.96460    200.3 9.085e+03 2.663e-09
 92.97450    200.3 9.562e+03 3.266e-09
 92.99304    201.0 9.497e+03 3.168e-09
 93.01303    201.8 9.439e+03 3.100e-09
 93.03301    202.7 9.416e+03 3.093e-09
 93.05035    203.5 9.411e+03 3.105e-09
 93.06035    203.4 9.524e+03 3.359e-09
 93.07299    204.3 9.507e+03 3.370e-09
 93.09298    205.3 9.494e+03 3.421e-09
 93.11297    206.3 9.498e+03 3.530e-09
 93.13296    207.3 9.514e+03 3.720e-09
 93.14630    208.3 9.543e+03 3.994e-09
 93.15629    208.2 9.666e+03 4.294e-09
 93.17293    209.2 9.709e+03 4.649e-09
 93.19292    210.1 9.786e+03 5.103e-09
 93.21291    211.1 9.900e+03 5.642e-09
 93.23224    212.0 1.005e+04 6.259e-09
 93.24224    211.4 1.034e+04 7.283e-09
 93.25289    212.1 1.055e+04 8.254e-09
 93.27288    212.9 1.075e+04 9.113e-09
 93.29286    213.5 1.092e+04 9.670e-09
 93.31285    214.2 1.104e+04 9.634e-09
 93.32819    214.8 1.106e+04 9.477e-09
 93.33818    213.9 1.120e+04 9.999e-09
 93.35283    214.5 1.105e+04 8.914e-09
 93.37282    214.9 1.084e+04 7.793e-09
 93.39281    215.1 1.057e+04 6.818e-09
 93.41279    215.4 1.031e+04 6.067e-09
 93.42413    215.6 1.011e+04 5.514e-09
 93.43412    214.6 9.873e+03 4.257e-09
 93.45277    214.8 9.775e+03 3.842e-09
 93.47276    214.9 9.689e+03 3.443e-09
 93.49275    215.0 9.598e+03 3.064e-09
 93.51008    215.1 9.490e+03 2.717e-09
 93.52007    213.9 9.301e+03 2.116e-09
 93.53273    214.2 9.178e+03 1.985e-09
 93.55271    214.5 9.077e+03 1.895e-09
 93.57270    215.1 8.958e+03 1.899e-09
 93.59269    215.6 8.945e+03 1.904e-09
 93.60602    216.2 8.913e+03 1.937e-09
 93.61601    215.6 8.851e+03 1.871e-09
 93.63267    216.1 8.835e+03 1.986e-09
 93.65266    216.6 8.902e+03 2.227e-09
 93.67264    217.0 9.116e+03 2.752e-09
 93.69197    217.0 9.460e+03 3.743e-09
 93.70196    216.2 9.603e+03 4.039e-09
 93.71262    216.0 1.009e+04 5.877e-09
 93.73261    215.6 1.066e+04 8.505e-09
 93.75260    214.8 1.121e+04 1.141e-08
 93.77259    213.4 1.161e+04 1.274e-08
 93.78791    211.4 1.165e+04 1.266e-08
 93.79790    210.2 1.164e+04 1.240e-08
 93.81256    207.8 1.151e+04 1.134e-08
 93.83255    205.2 1.117e+04 1.008e-08
 93.85254    202.4 1.108e+04 1.001e-08
 93.87253    199.4 1.122e+04 1.092e-08
 93.88385    195.6 1.207e+04 1.687e-08
 93.89385    195.2 1.222e+04 1.747e-08
 93.91251    191.1 1.454e+04 4.255e-08
 93.93249    186.9 1.649e+04 9.217e-08
 93.95248    182.1 1.771e+04 1.237e-07
 93.96980    176.2 1.785e+04 1.197e-07
 93.97979    175.9 1.856e+04 1.677e-07
 93.99246    169.9 1.830e+04 1.325e-07
 94.01245    164.8 1.699e+04 7.673e-08
 94.03244    160.4 1.485e+04 4.272e-08
 94.05243    157.2 1.364e+04 3.442e-08
 94.06574    155.7 1.361e+04 3.457e-08
 94.07574    155.4 1.319e+04 3.073e-08
 94.09240    154.6 1.313e+04 2.861e-08
 94.11239    154.1 1.322e+04 2.700e-08
 94.13238    153.3 1.328e+04 2.670e-08
 94.15169    152.5 1.333e+04 2.673e-08
 94.16168    151.2 1.214e+04 1.662e-08
 94.17236    150.1 1.212e+04 1.725e-08
 94.19234    149.0 1.217e+04 1.828e-08
 94.21233    147.6 1.231e+04 1.950e-08
 94.23232    145.6 1.259e+04 2.140e-08
 94.24763    143.1 1.308e+04 2.548e-08
 94.25763    142.8 1.203e+04 1.757e-08
 94.27230    140.4 1.247e+04 1.977e-08
 94.29229    137.6 1.309e+04 2.205e-08
 94.31227    134.4 1.386e+04 2.422e-08
 94.33226    130.7 1.448e+04 2.589e-08
 94.34357    127.1 1.475e+04 2.725e-08
 94.35357    128.7 1.334e+04 1.472e-08
 94.37224    125.9 1.359e+04 1.696e-08
 94.39223    123.8 1.381e+04 2.116e-08
 94.41222    122.6 1.405e+04 2.687e-08
 94.42952    122.0 1.425e+04 3.171e-08
 94.43952    123.9 1.397e+04 2.717e-08
 94.45219    123.6 1.432e+04 3.127e-08
 94.47218    123.2 1.435e+04 3.112e-08
 94.49217    123.0 1.418e+04 2.844e-08
 94.51216    122.8 1.372e+04 2.229e-08
 94.52546    122.6 1.307e+04 1.559e-08
 94.53451    123.9 1.368e+04 1.891e-08
 94.54120    124.0 1.419e+04 2.614e-08
 94.55214    124.0 1.369e+04 1.846e-08
 94.57212    124.1 1.311e+04 1.207e-08
 94.59211    124.2 1.255e+04 8.147e-09
 94.61141    124.3 1.203e+04 6.495e-09
 94.62141    125.5 1.227e+04 6.605e-09
 94.63209    125.8 1.178e+04 6.035e-09
 94.65208    126.4 1.174e+04 6.038e-09
 94.67207    127.3 1.173e+04 6.231e-09
 94.69206    128.3 1.179e+04 7.005e-09
 94.70735    129.3 1.206e+04 8.750e-09
 94.71735    129.9 1.174e+04 7.673e-09
 94.73203    130.6 1.198e+04 9.594e-09
 94.75202    130.9 1.262e+04 1.377e-08
 94.77201    131.2 1.360e+04 2.199e-08
 94.78695    131.4 1.391e+04 2.654e-08
 94.79690    131.6 1.408e+04 2.868e-08
 94.80320    131.7 1.439e+04 3.155e-08
 94.81324    132.4 1.364e+04 2.631e-08
 94.82693    132.0 1.459e+04 3.241e-08
 94.83687    131.2 1.607e+04 4.382e-08
 94.84617    129.6 1.770e+04 7.348e-08
 94.85117    131.2 1.569e+04 3.733e-08
 94.85686    129.3 1.742e+04 6.077e-08
 94.86686    127.6 1.842e+04 1.163e-07
 94.87685    126.5 1.868e+04 2.216e-07
 94.88685    126.0 1.869e+04 3.532e-07
 94.89414    125.4 1.870e+04 4.055e-07
 94.89914    125.5 1.856e+04 2.036e-07
 94.90683    124.6 1.851e+04 2.204e-07
 94.91683    123.5 1.845e+04 2.142e-07
 94.93187    123.1 1.805e+04 1.552e-07
 94.95191    121.7 1.730e+04 8.545e-08
 94.97189    119.9 1.590e+04 3.697e-08
 94.98519    118.1 1.346e+04 1.601e-08
 94.99518    120.8 1.500e+04 3.126e-08
 95.01187    119.5 1.319e+04 1.625e-08
 95.03186    118.9 1.161e+04 1.022e-08
 95.05185    119.2 1.155e+04 9.108e-09
 95.07114    119.5 1.118e+04 7.593e-09
 95.08113    120.7 1.150e+04 8.464e-09
 95.10192    121.1 1.105e+04 6.771e-09
 95.14199    122.5 1.057e+04 5.020e-09
 95.16727    124.1 1.027e+04 4.045e-09
 95.18726    124.3 1.033e+04 3.769e-09
 95.22195    126.0 1.031e+04 3.764e-09
 95.26192    128.0 1.036e+04 3.905e-09
 95.30190    129.6 1.050e+04 4.427e-09
 95.33917    131.1 1.087e+04 5.963e-09
 95.35906    131.4 1.088e+04 6.467e-09
 95.37166    131.9 1.111e+04 7.779e-09
 95.39165    132.3 1.134e+04 9.449e-09
 95.41164    132.5 1.156e+04 1.128e-08
 95.43163    132.6 1.178e+04 1.312e-08
 95.44491    132.4 1.206e+04 1.517e-08
 95.45490    132.2 1.305e+04 2.118e-08
 95.47161    131.1 1.402e+04 2.911e-08
 95.49159    129.8 1.493e+04 3.923e-08
 95.51158    128.0 1.533e+04 4.409e-08
 95.53086    126.1 1.523e+04 4.289e-08
 95.54085    125.0 1.647e+04 7.897e-08
 95.55156    124.1 1.552e+04 5.655e-08
 95.57155    123.7 1.413e+04 3.390e-08
 95.59154    123.2 1.265e+04 1.967e-08
 95.61152    122.6 1.145e+04 1.246e-08
 95.62680    122.4 1.076e+04 9.191e-09
 95.63679    122.0 1.095e+04 9.772e-09
 95.65150    122.3 1.053e+04 7.697e-09
 95.67149    123.0 1.017e+04 6.090e-09
 95.69148    123.9 9.850e+03 4.679e-09
 95.71147    124.6 9.582e+03 3.574e-09
 95.72274    125.2 9.356e+03 2.795e-09
 95.73274    125.0 9.248e+03 2.601e-09
 95.75144    125.6 8.975e+03 2.085e-09
 95.78152    126.7 8.893e+03 2.079e-09
 95.82160    128.1 8.675e+03 1.887e-09
 95.86158    129.8 8.645e+03 1.891e-09
 95.89483    131.3 8.638e+03 1.936e-09
 95.91482    131.0 8.313e+03 1.520e-09
 95.94153    132.2 8.352e+03 1.675e-09
 95.98151    133.0 8.371e+03 1.984e-09
 96.01139    133.0 8.330e+03 2.234e-09
 96.03128    133.3 8.301e+03 2.514e-09
 96.05127    133.9 8.409e+03 3.097e-09
 96.07126    134.7 8.730e+03 4.106e-09
 96.08652    135.3 9.174e+03 5.540e-09
 96.09652    135.3 8.950e+03 5.184e-09
 96.11124    135.6 9.368e+03 6.905e-09
 96.13122    135.5 9.764e+03 8.808e-09
 96.15121    135.1 1.048e+04 1.193e-08
 96.17120    133.6 1.185e+04 1.873e-08
 96.18247    131.4 1.350e+04 3.255e-08
 96.19246    132.7 1.226e+04 2.127e-08
 96.21118    130.2 1.361e+04 3.501e-08
 96.23117    127.9 1.454e+04 4.921e-08
 96.25116    125.6 1.478e+04 5.112e-08
 96.26841    123.4 1.468e+04 4.613e-08
 96.27841    125.0 1.451e+04 4.528e-08
 96.29113    122.7 1.446e+04 3.931e-08
 96.31112    119.8 1.407e+04 2.651e-08
 96.33111    115.9 1.326e+04 1.702e-08
 96.35110    111.8 1.225e+04 1.527e-08
 96.36436    108.6 1.212e+04 1.598e-08
 96.37435    110.4 1.237e+04 1.681e-08
 96.39107    107.3 1.218e+04 1.685e-08
 96.41106    104.4 1.221e+04 1.715e-08
 96.43105    101.4 1.226e+04 1.697e-08
 96.45030     98.0 1.227e+04 1.547e-08
 96.46030     98.4 1.186e+04 1.196e-08
 96.47103     94.8 1.172e+04 1.039e-08
 96.49102     90.7 1.146e+04 8.822e-09
 96.50918     86.2 1.106e+04 7.644e-09
 96.51917     87.0 1.069e+04 6.768e-09
 96.53099     83.0 1.036e+04 6.487e-09
 96.54625     79.6 1.002e+04 6.448e-09
 96.55624     80.1 1.037e+04 6.692e-09
 96.57097     77.5 1.025e+04 6.786e-09
 96.59096     74.4 1.060e+04 7.918e-09
 96.61095     68.0 1.240e+04 1.491e-08
 96.63094     62.2 1.490e+04 4.606e-08
 96.64219     59.8 1.614e+04 9.958e-08
 96.65218     59.9 1.605e+04 9.489e-08
 96.67091     58.3 1.639e+04 1.028e-07
 96.69090     56.4 1.632e+04 8.574e-08
 96.71089     53.0 1.559e+04 4.909e-08
 96.72814     47.9 1.372e+04 2.559e-08
 96.73813     47.0 1.310e+04 2.298e-08
 96.75087     44.2 1.146e+04 1.685e-08
 96.77086     43.2 1.114e+04 1.431e-08
 96.79084     41.4 1.060e+04 1.178e-08
 96.81418     38.0 1.020e+04 8.949e-09
 96.83427     39.7 1.005e+04 8.393e-09
 96.86100     35.9 9.349e+03 5.606e-09
 96.90098     32.5 8.843e+03 4.234e-09
 96.94095     29.7 8.492e+03 3.639e-09
 96.98093     26.5 8.571e+03 3.896e-09
 97.00616     22.2 9.137e+03 5.569e-09
 97.02615     23.1 1.017e+04 9.516e-09
 97.06088     18.8 1.010e+04 9.700e-09
 97.10086     16.3 9.167e+03 6.396e-09
 97.14084     13.3 8.054e+03 3.676e-09
 97.17806     11.7 7.381e+03 2.576e-09
 97.19805     11.6 7.065e+03 1.946e-09
 97.22079     11.3 6.949e+03 1.657e-09
 97.26077     10.5 7.180e+03 1.910e-09
 97.30074     10.3 7.596e+03 2.758e-09
 97.34072     11.2 7.799e+03 3.477e-09
 97.36994     12.6 7.825e+03 3.466e-09
 97.38993     13.5 7.259e+03 2.158e-09
 97.42068     14.0 7.078e+03 1.645e-09
 97.46065     14.7 7.076e+03 1.634e-09
 97.50063     15.7 7.722e+03 2.340e-09
 97.53051     14.2 8.513e+03 3.766e-09
 97.55041     16.1 7.992e+03 3.665e-09
 97.56163     17.0 8.082e+03 4.196e-09
 97.57163     16.6 8.169e+03 2.967e-09
 97.59038     18.2 8.094e+03 3.105e-09
 97.61037     17.4 8.742e+03 4.408e-09
 97.63036     18.8 8.675e+03 4.585e-09
 97.64758     18.3 9.661e+03 5.926e-09
 97.65758     18.3 9.087e+03 5.416e-09
 97.67034     17.4 9.851e+03 7.049e-09
 97.69032     14.8 1.217e+04 1.355e-08
 97.71031     12.2 1.354e+04 2.583e-08
 97.73030     12.5 1.402e+04 4.340e-08
 97.74352     12.7 1.447e+04 5.188e-08
 97.75352     12.4 1.491e+04 6.080e-08
 97.77028     11.9 1.499e+04 6.040e-08
 97.79027     12.0 1.462e+04 4.517e-08
 97.81025     11.1 1.373e+04 2.775e-08
 97.82947      9.3 1.241e+04 1.462e-08
 97.83947     11.0 1.266e+04 1.682e-08
 97.85023      8.7 1.116e+04 1.020e-08
 97.87022      8.9 1.033e+04 7.400e-09
 97.90030      8.4 1.061e+04 8.233e-09
 97.92561      8.3 1.054e+04 7.123e-09
 97.94560      8.2 1.034e+04 6.952e-09
 97.98035      7.5 1.056e+04 7.890e-09
 98.02033      7.9 1.082e+04 1.164e-08
 98.05021      8.4 1.065e+04 1.163e-08
 98.07010      9.4 1.062e+04 1.150e-08
 98.09009      9.9 1.042e+04 1.020e-08
 98.10731     10.0 1.031e+04 9.653e-09
 98.11740     10.5 1.038e+04 9.609e-09
 98.14026     11.0 1.006e+04 8.229e-09
 98.18024     12.1 9.829e+03 7.163e-09
 98.22021     13.0 1.015e+04 7.735e-09
 98.25010     10.3 1.082e+04 9.205e-09
 98.26999     10.8 1.082e+04 1.022e-08
 98.28920     11.4 1.098e+04 1.403e-08
 98.29919     11.3 1.070e+04 1.418e-08
 98.30997     13.8 1.131e+04 1.695e-08
 98.32995     11.6 1.379e+04 2.768e-08
 98.34211     -0.1 2.041e+04 4.452e-08
 98.34706     -0.1 2.117e+04 4.232e-08
 98.35484     -8.1 2.316e+04 1.232e-07
 98.36484    -16.5 2.204e+04 4.542e-07
 98.37483    -25.7 1.910e+04 1.234e-06
 98.38483    -34.3 1.931e+04 2.009e-06
 98.39004    -49.4 2.118e+04 1.397e-06
 98.39503    -47.2 2.126e+04 1.317e-06
 98.40481    -69.0 2.164e+04 1.259e-07
 98.41481    -79.6 1.572e+04 4.388e-08
 98.42480    -82.2 1.427e+04 3.201e-08
 98.43301    -84.5 1.351e+04 2.449e-08
 98.43801    -84.2 1.368e+04 2.512e-08
 98.44984    -87.2 1.252e+04 1.965e-08
 98.46987    -90.7 1.128e+04 1.520e-08
 98.48108    -92.3 1.096e+04 1.435e-08
 98.48837    -91.5 1.103e+04 1.437e-08
 98.49715    -90.5 1.077e+04 1.212e-08
 98.50985    -91.0 1.100e+04 1.326e-08
 98.52984    -91.2 1.137e+04 1.533e-08
 98.54983    -91.0 1.164e+04 1.692e-08
 98.56703    -90.8 1.180e+04 1.801e-08
 98.57702    -89.9 1.201e+04 1.860e-08
 98.58980    -90.1 1.257e+04 2.145e-08
 98.60979    -91.0 1.336e+04 2.605e-08
 98.62978    -92.5 1.422e+04 3.270e-08
 98.64977    -94.2 1.502e+04 4.178e-08
 98.66297    -95.8 1.571e+04 5.303e-08
 98.67296    -94.9 1.653e+04 1.111e-07
 98.68975    -95.6 1.700e+04 1.291e-07
 98.70974    -96.5 1.714e+04 1.332e-07
 98.72972    -97.6 1.719e+04 1.228e-07
 98.74892    -98.6 1.671e+04 9.470e-08
 98.75891    -97.4 1.631e+04 8.597e-08
 98.76970    -98.9 1.589e+04 6.899e-08
 98.78969    -99.8 1.526e+04 5.350e-08
 98.80968   -100.3 1.440e+04 3.751e-08
 98.82967   -101.0 1.341e+04 2.470e-08
 98.84486   -102.5 1.286e+04 1.892e-08
 98.85485   -101.3 1.375e+04 2.873e-08
 98.86964   -102.9 1.381e+04 2.785e-08
 98.88963   -105.3 1.466e+04 3.180e-08
 98.90962   -107.7 1.550e+04 4.382e-08
 98.92961   -109.7 1.573e+04 5.208e-08
 98.94080   -111.5 1.563e+04 5.283e-08
 98.95080   -110.1 1.699e+04 9.409e-08
 98.96959   -111.5 1.624e+04 7.590e-08
 98.98957   -112.5 1.484e+04 4.268e-08
 99.00956   -113.5 1.316e+04 2.145e-08
 99.02675   -114.5 1.181e+04 1.178e-08
 99.03674   -113.5 1.285e+04 2.136e-08
 99.04954   -114.1 1.194e+04 1.394e-08
 99.06953   -114.5 1.135e+04 1.022e-08
 99.08952   -114.7 1.094e+04 8.345e-09
 99.10950   -114.8 1.069e+04 7.478e-09
 99.12269   -114.9 1.056e+04 7.108e-09
 99.13269   -113.4 1.099e+04 9.146e-09
 99.14948   -113.4 1.078e+04 8.249e-09
 99.16947   -113.4 1.063e+04 7.635e-09
 99.18946   -113.4 1.053e+04 7.147e-09
 99.20864   -113.4 1.048e+04 6.755e-09
 99.21864   -112.0 1.061e+04 7.286e-09
 99.22944   -112.0 1.060e+04 6.938e-09
 99.24942   -112.1 1.060e+04 6.865e-09
 99.26941   -112.2 1.066e+04 6.857e-09
 99.28940   -112.6 1.087e+04 7.128e-09
 99.30458   -113.2 1.115e+04 7.765e-09
 99.31458   -111.3 1.122e+04 8.469e-09
 99.32938   -112.1 1.152e+04 9.227e-09
 99.34937   -113.1 1.186e+04 1.026e-08
 99.36935   -114.1 1.222e+04 1.149e-08
 99.38934   -115.0 1.253e+04 1.281e-08
 99.40053   -115.7 1.269e+04 1.417e-08
 99.41052   -114.7 1.281e+04 1.441e-08
 99.42932   -115.2 1.283e+04 1.557e-08
 99.44931   -115.1 1.275e+04 1.646e-08
 99.46930   -114.8 1.266e+04 1.675e-08
 99.48647   -113.5 1.234e+04 1.668e-08
 99.49647   -112.9 1.256e+04 1.834e-08
 99.50927   -111.5 1.240e+04 1.799e-08
 99.52926   -110.3 1.238e+04 1.786e-08
 99.54925   -109.2 1.238e+04 1.786e-08
 99.56924   -108.0 1.245e+04 1.823e-08
 99.58242   -106.8 1.251e+04 1.856e-08
 99.59241   -106.2 1.321e+04 2.484e-08
 99.60922   -105.1 1.333e+04 2.634e-08
 99.62920   -103.9 1.334e+04 2.714e-08
 99.64919   -102.8 1.331e+04 2.727e-08
 99.66836   -101.8 1.314e+04 2.623e-08
 99.67836   -101.1 1.381e+04 3.572e-08
 99.68917    -99.9 1.360e+04 3.300e-08
 99.70916    -98.9 1.341e+04 3.033e-08
 99.72915    -98.0 1.335e+04 2.807e-08
 99.74914    -97.4 1.344e+04 2.722e-08
 99.76431    -97.1 1.360e+04 2.718e-08
 99.77430    -95.6 1.358e+04 2.787e-08
 99.78911    -95.2 1.370e+04 2.752e-08
 99.80910    -95.0 1.402e+04 2.789e-08
 99.82909    -94.9 1.425e+04 2.946e-08
 99.84908    -94.8 1.430e+04 3.110e-08
 99.86025    -94.5 1.420e+04 3.185e-08
 99.87024    -93.0 1.465e+04 3.228e-08
 99.88905    -93.0 1.474e+04 3.531e-08
 99.90904    -92.7 1.463e+04 3.654e-08
 99.92903    -92.3 1.441e+04 3.520e-08
 99.94620    -91.8 1.407e+04 3.135e-08
 99.95619    -90.9 1.599e+04 6.132e-08
 99.96901    -90.2 1.594e+04 6.306e-08
 99.98900    -89.7 1.575e+04 5.892e-08
100.00899    -89.2 1.542e+04 5.007e-08
